"ass_4b4a2f02e3898";"usr_49a467bf4e0db";"trm_4a3fd79d0af66";"T16";"tsk_4a57abb949e1a";"concept-task";"100";"response inhibition is measured by the contrast of Stop Signal Reaction Time trials in the stop signal task";;"2010-01-10 11:48:18";"NADA";"cnt_4b44a5321112e";"positive";"0"
"ass_4b4a2f8c351cf";"usr_49a467bf4e0db";"trm_4a3fd79d0af66";"T16";"tsk_4a57abb949a93";"concept-task";"100";"response inhibition is measured by the contrast of Stop trial trials in the Go/no-go task";;"2010-01-10 11:50:36";"NADA";"cnt_4b4a2f46e2faa";"positive";"0"
"ass_4b4a5151af6cd";"usr_49a467bf4e0db";"trm_4a3fd79d0b5a7";"T1";"trm_4a3fd79d0a891";"concept-concept";"100";"working memory is a kind of memory";;"2010-01-10 14:14:41";"NADA";;"positive";"0"
"ass_4b4a517e1bc90";"usr_49a467bf4e0db";"trm_4a3fd79d0b1e0";"T1";"trm_4a3fd79d0b5a7";"concept-concept";"100";"spatial working memory is a kind of working memory";;"2010-01-10 14:15:26";"NADA";;"positive";"0"
"ass_4b4a53ec314b1";"usr_49a467bf4e0db";"tsk_4a57abb949bcd";"T15";"trm_4b4a537644d76";"task-task";"100";"n-back task is descended from Continuous Performance Task";;"2010-01-10 14:25:48";"NADA";;"positive";"0"
"ass_4b4a54f5c4df2";"usr_49a467bf4e0db";"trm_4a3fd79d0b5a7";"T16";"tsk_4a57abb949bcd";"concept-task";"100";"working memory is measured by the contrast of 1-back trials in the n-back task";;"2010-01-10 14:30:13";"NADA";"cnt_4b4a5473705db";"positive";"0"
"ass_4b4a54f5c7baa";"usr_49a467bf4e0db";"trm_4a3fd79d0b5a7";"T16";"tsk_4a57abb949bcd";"concept-task";"100";"working memory is measured by the contrast of 2-back trials in the n-back task";;"2010-01-10 14:30:13";"NADA";"cnt_4b4a5481dc0f2";"positive";"0"
"ass_4b4a54f5c9ae1";"usr_49a467bf4e0db";"trm_4a3fd79d0b5a7";"T16";"tsk_4a57abb949bcd";"concept-task";"100";"working memory is measured by the contrast of 3-back trials in the n-back task";;"2010-01-10 14:30:13";"NADA";"cnt_4b4a5490f1bb4";"positive";"0"
"ass_4b4a54f5cba1d";"usr_49a467bf4e0db";"trm_4a3fd79d0b5a7";"T16";"tsk_4a57abb949bcd";"concept-task";"100";"working memory is measured by the contrast of 3-back minus 1-back trials in the n-back task";;"2010-01-10 14:30:13";"NADA";"cnt_4b4a54dd8d597";"positive";"0"
"ass_4b4a55258ca7e";"usr_49a467bf4e0db";"trm_4a3fd79d0ba6c";"T2";"trm_4a3fd79d0b5a7";"concept-concept";"100";"working memory retrieval is a part of working memory";;"2010-01-10 14:31:01";"NADA";;"positive";"0"
"ass_4b4a55649a3f5";"usr_49a467bf4e0db";"trm_4a3fd79d0ba77";"T2";"trm_4a3fd79d0b5a7";"concept-concept";"100";"working memory storage is a part of working memory";;"2010-01-10 14:32:04";"NADA";;"positive";"0"
"ass_4b4a58b3e43fe";"usr_49a467bf4e0db";"trm_4a3fd79d0a252";"T10";"trm_4a3fd79d0a246";"concept-concept";"100";"executive function is an exact synonym of executive control";;"2010-01-10 14:46:11";"exact";;"positive";"0"
"ass_4b4a5c9370f4a";"usr_49a467bf4e0db";"trm_4a3fd79d0ba25";"T2";"trm_4a3fd79d0a252";"concept-concept";"100";"central executive is a part of executive function";;"2010-01-10 15:02:43";"NADA";;"positive";"0"
"ass_4b4a5cf9716de";"usr_49a467bf4e0db";"trm_4a3fd79d0b08f";"T1";"trm_4a3fd79d0b5a7";"concept-concept";"100";"semantic working memory is a kind of working memory";;"2010-01-10 15:04:25";"NADA";;"positive";"0"
"ass_4b4a5e644a3f4";"usr_49a467bf4e0db";"trm_4a3fd79d0b507";"T2";"trm_4a3fd79d0b1e0";"concept-concept";"100";"visuospatial sketch pad is a part of spatial working memory";;"2010-01-10 15:10:28";"NADA";;"positive";"0"
"ass_4b4a5eef92be3";"usr_49a467bf4e0db";"trm_4a3fd79d09b04";"T1";"trm_4a3fd79d0b5a7";"concept-concept";"100";"auditory working memory is a kind of working memory";;"2010-01-10 15:12:47";"NADA";;"positive";"0"
"ass_4b4a60c4665aa";"usr_49a467bf4e0db";"trm_4a3fd79d0b5a7";"T16";"tsk_4a57abb9499f1";"concept-task";"100";"working memory is measured by the contrast of delay trials in the delayed nonmatch to sample task";;"2010-01-10 15:20:36";"NADA";"cnt_4b4a5f85437c2";"positive";"0"
"ass_4b4a60c46a6a3";"usr_49a467bf4e0db";"trm_4a3fd79d0b5a7";"T16";"tsk_4a57abb9499f1";"concept-task";"100";"working memory is measured by the contrast of delay minus no delay trials in the delayed nonmatch to sample task";;"2010-01-10 15:20:36";"NADA";"cnt_4b4a609f11b96";"positive";"0"
"ass_4b4a610dc7839";"usr_49a467bf4e0db";"trm_4aae62e4ad209";"T10";"trm_4a3fd79d0a252";"concept-concept";"70";"cognitive control is a narrower synonym of executive function";;"2010-01-10 15:21:49";"narrower";;"positive";"0"
"ass_4b4a6166ef4b3";"usr_49a467bf4e0db";"trm_4a3fd79d0af66";"T1";"trm_4a3fd79d0a252";"concept-concept";"100";"response inhibition is a kind of executive function";;"2010-01-10 15:23:18";"NADA";;"positive";"0"
"ass_4b4a61c97ee4f";"usr_49a467bf4e0db";"trm_4a3fd79d0b5cb";"T10";"trm_4a3fd79d0af71";"concept-concept";"70";"action selection is an exact synonym of response selection";;"2010-01-10 15:24:57";"exact";;"positive";"0"
"ass_4b64afa4966e6";"usr_4b64af5545a03";"trm_4a3fd79d0aeb6";"T1";"trm_4a3fd79d0b4a9";"concept-concept";"100";"reading is a kind of visual object recognition";;"2010-01-30 14:16:04";"NADA";;"positive";"0"
"ass_4b64afbf6aa8e";"usr_4b64af5545a03";"trm_4a3fd79d0aeb6";"T2";"trm_4a3fd79d0b802";"concept-concept";"100";"reading is a part of language processing";;"2010-01-30 14:16:31";"NADA";;"positive";"0"
"ass_4b64b1433a659";"usr_4b64af5545a03";"trm_4a3fd79d0ab59";"T2";"trm_4a3fd79d0a769";"concept-concept";"100";"past tense is a part of language";;"2010-01-30 14:22:59";"NADA";;"positive";"0"
"ass_4b64b43031367";"usr_4b64af5545a03";"trm_4a3fd79d0b86e";"T2";"trm_4a3fd79d0a769";"concept-concept";"100";"phonology is a part of language";;"2010-01-30 14:35:28";"NADA";;"positive";"0"
"ass_4b64b44385b1e";"usr_4b64af5545a03";"trm_4a3fd79d0b86e";"T2";"trm_4a3fd79d0a775";"concept-concept";"100";"phonology is a part of language comprehension";;"2010-01-30 14:35:47";"NADA";;"positive";"0"
"ass_4b64b458ccfc1";"usr_4b64af5545a03";"trm_4a3fd79d0b86e";"T2";"trm_4a3fd79d0a78d";"concept-concept";"100";"phonology is a part of language production";;"2010-01-30 14:36:08";"NADA";;"positive";"0"
"ass_4b65244f102ea";"usr_4b54bb9dcf254";"tsk_4a57abb949b1c";"T15";"tsk_4a57abb949bcd";"task-task";"100";"letter n-back task  is descended from n-back task";;"2010-01-30 22:33:51";"NADA";;"positive";"0"
"ass_4b65248e2dd6e";"usr_4b54bb9dcf254";"tsk_4a57abb949a6a";"T15";"tsk_4a57abb949bcd";"task-task";"100";"face n-back task  is descended from n-back task";;"2010-01-30 22:34:54";"NADA";;"positive";"0"
"ass_4b6554150dfb8";"usr_4b64af5545a03";"trm_4a3fd79d0a78d";"T2";"trm_4a3fd79d0a769";"concept-concept";"100";"language production is a part of language";;"2010-01-31 01:57:41";"NADA";;"positive";"0"
"ass_4b65587634a35";"usr_4b64af5545a03";"trm_4a3fd79d0b077";"T1";"trm_4a3fd79d0a833";"concept-concept";"100";"semantic knowledge is a kind of long term memory";;"2010-01-31 02:16:22";"NADA";;"positive";"0"
"ass_4b65588580318";"usr_4b64af5545a03";"trm_4a3fd79d0b077";"T2";"trm_4a3fd79d0a769";"concept-concept";"100";"semantic knowledge is a part of language";;"2010-01-31 02:16:37";"NADA";;"positive";"0"
"ass_4b6558e004424";"usr_4b64af5545a03";"trm_4a3fd79d0a966";"T2";"trm_4a3fd79d0a769";"concept-concept";"100";"morpheme is a part of language";;"2010-01-31 02:18:08";"NADA";;"positive";"0"
"ass_4b6558fa4df75";"usr_4b64af5545a03";"trm_4a3fd79d0a966";"T2";"trm_4a3fd79d0b53c";"concept-concept";"100";"morpheme is a part of word";;"2010-01-31 02:18:34";"NADA";;"positive";"0"
"ass_4b65e5023e714";"usr_4b64af5545a03";"trm_4a3fd79d09786";"T1";"trm_4a3fd79d0a769";"concept-concept";"100";"agglutinative language is a kind of language";;"2010-01-31 12:16:02";"NADA";;"positive";"0"
"ass_4b65ee343fe21";"usr_4b64af5545a03";"trm_4b65edcf9129a";"T2";"trm_4a3fd79d0a769";"concept-concept";"100";"word frequency (token) is a part of language";;"2010-01-31 12:55:16";"NADA";;"positive";"0"
"ass_4b65ee5f14a93";"usr_4b64af5545a03";"trm_4b65edcf8bc43";"T2";"trm_4a3fd79d0a769";"concept-concept";"100";"word frequency (type) is a part of language";;"2010-01-31 12:55:59";"NADA";;"positive";"0"
"ass_4b65ffb10f061";"usr_4b64af5545a03";"trm_4a3fd79d0b434";"T2";"trm_4a3fd79d0b247";"concept-concept";"100";"velar is a part of speech production";;"2010-01-31 14:09:53";"NADA";;"positive";"0"
"ass_4b65ffe09cb58";"usr_4b64af5545a03";"trm_4a3fd79d0b440";"T1";"trm_4a3fd79d0b53c";"concept-concept";"100";"verb is a kind of word";;"2010-01-31 14:10:40";"NADA";;"positive";"0"
"ass_4b65fff2b2b93";"usr_4b64af5545a03";"trm_4a3fd79d0b440";"T2";"trm_4a3fd79d0a769";"concept-concept";"100";"verb is a part of language";;"2010-01-31 14:10:58";"NADA";;"positive";"0"
"ass_4b6600272f5ca";"usr_4b64af5545a03";"trm_4a3fd79d0b4a9";"T1";"trm_4a3fd79d0b4b5";"concept-concept";"100";"visual object recognition is a kind of visual perception";;"2010-01-31 14:11:51";"NADA";;"positive";"0"
"ass_4b7c11b0a6d5f";"usr_49a467bf4e0db";"trm_4a3fd79d0b613";"T16";"tsk_4a57abb949f21";"concept-task";"100";"task switching is measured by the contrast of Perseverative errors trials in the Wisconsin Card Sorting test";;"2010-02-17 07:56:32";"NADA";"cnt_4b7c101e9b549";"positive";"0"
"ass_4b7c11d216fb8";"usr_49a467bf4e0db";"trm_4a3fd79d0b5a7";"T16";"tsk_4a57abb949f21";"concept-task";"100";"working memory is measured by the contrast of Failure to maintain set trials in the Wisconsin Card Sorting test";;"2010-02-17 07:57:06";"NADA";"cnt_4b7c108cc7a68";"positive";"0"
"ass_4b7c27488af65";"usr_49a467bf4e0db";"trm_4b7c270940f9d";"T10";"trm_4a3fd79d0af66";"concept-concept";"100";"behavioral inhibition (cognitive) is an exact synonym of response inhibition";;"2010-02-17 09:28:40";"exact";;"positive";"0"
"ass_4b82cf7c151a9";"usr_4aef33d37b963";"trm_4b82c75498408";"T16";"trm_4b749b8829eee";"concept-task";"70";"Central Coherence is measured by the contrast of Segmented blocks trials in the Embedded Figures Test";;"2010-02-22 10:39:56";"NADA";"cnt_4b7c0325a9f17";"positive";"0"
"ass_4b82cf7c19a4c";"usr_4aef33d37b963";"trm_4b82c75498408";"T16";"trm_4b749b8829eee";"concept-task";"70";"Central Coherence is measured by the contrast of Unsegmented blocks trials in the Embedded Figures Test";;"2010-02-22 10:39:56";"NADA";"cnt_4b7c03351fc78";"positive";"0"
"ass_4b82d318e6750";"usr_4aef33d37b963";"trm_4b82c75498408";"T16";"trm_4b7497a289534";"concept-task";"70";"Central Coherence is measured by the contrast of Unsegmented blocks trials in the Block Design Test";;"2010-02-22 10:55:20";"NADA";"cnt_4b82d26b480ea";"positive";"0"
"ass_4be3b16abf22d";"usr_4b64af5545a03";"trm_4a3fd79d0b786";"T1";"trm_4a3fd79d0b53c";"concept-concept";"100";"homonym is a kind of word";;"2010-05-06 23:21:30";"NADA";;"positive";"0"
"ass_4be3b18098ec1";"usr_4b64af5545a03";"trm_4a3fd79d0b786";"T2";"trm_4a3fd79d0a769";"concept-concept";"100";"homonym is a part of language";;"2010-05-06 23:21:52";"NADA";;"positive";"0"
"ass_4be3b28a28003";"usr_4b64af5545a03";"trm_4a3fd79d0ae93";"T1";"trm_4a3fd79d0ae9e";"concept-concept";"100";"pseudohomophone is a kind of pseudoword";;"2010-05-06 23:26:18";"NADA";;"positive";"0"
"ass_4be3b2a2a30e6";"usr_4b64af5545a03";"trm_4a3fd79d0ae93";"T2";"trm_4a3fd79d0a769";"concept-concept";"70";"pseudohomophone is a part of language";;"2010-05-06 23:26:42";"NADA";;"positive";"0"
"ass_4be3b80a0fae3";"usr_4b64af5545a03";"trm_4a3fd79d0b792";"T1";"trm_4a3fd79d0b53c";"concept-concept";"100";"homophone is a kind of word";;"2010-05-06 23:49:46";"NADA";;"positive";"0"
"ass_4be3b81a6e31a";"usr_4b64af5545a03";"trm_4a3fd79d0b792";"T2";"trm_4a3fd79d0a769";"concept-concept";"100";"homophone is a part of language";;"2010-05-06 23:50:02";"NADA";;"positive";"0"
"ass_4be3c0fced135";"usr_4b64af5545a03";"trm_4a3fd79d0a504";"T2";"trm_4a3fd79d0b53c";"concept-concept";"70";"imageability is a part of word";;"2010-05-07 00:27:56";"NADA";;"positive";"0"
"ass_4be3c16ca6376";"usr_4b64af5545a03";"trm_4a3fd79d0a504";"T2";"trm_4a3fd79d0a769";"concept-concept";"100";"imageability is a part of language";;"2010-05-07 00:29:48";"NADA";;"positive";"0"
"ass_4be44d92e70f0";"usr_4b64af5545a03";"trm_4a3fd79d0b53c";"T2";"trm_4a3fd79d0a769";"concept-concept";"100";"word is a part of language";;"2010-05-07 10:27:46";"NADA";;"positive";"0"
"ass_4be50ce4e5c4e";"usr_4b64af5545a03";"trm_4a3fd79d0a607";"T2";"trm_4a3fd79d0b83e";"concept-concept";"100";"inflection is a part of morphology";;"2010-05-08 00:04:04";"NADA";;"positive";"0"
"ass_4be50cf460607";"usr_4b64af5545a03";"trm_4a3fd79d0a607";"T2";"trm_4a3fd79d0b53c";"concept-concept";"100";"inflection is a part of word";;"2010-05-08 00:04:20";"NADA";;"positive";"0"
"ass_4be50d0d38f99";"usr_4b64af5545a03";"trm_4a3fd79d0a607";"T2";"trm_4a3fd79d0a769";"concept-concept";"100";"inflection is a part of language";;"2010-05-08 00:04:45";"NADA";;"positive";"0"
"ass_4be662b0cae30";"usr_4b64af5545a03";"trm_4a3fd79d0b518";"T2";"trm_4a3fd79d0a769";"concept-concept";"100";"vocabulary is a part of language";;"2010-05-09 00:22:24";"NADA";;"positive";"0"
"ass_4be662db87821";"usr_4b64af5545a03";"trm_4a3fd79d0b53c";"T2";"trm_4a3fd79d0b518";"concept-concept";"100";"word is a part of vocabulary";;"2010-05-09 00:23:07";"NADA";;"positive";"0"
"ass_4be6656a972bb";"usr_4b64af5545a03";"trm_4a3fd79d0b2b4";"T2";"trm_4a3fd79d0aeb6";"concept-concept";"50";"sublexical route is a part of reading";;"2010-05-09 00:34:02";"NADA";;"positive";"0"
"ass_4be6686568ef8";"usr_4b64af5545a03";"trm_4a3fd79d0b083";"T2";"trm_4a3fd79d0a769";"concept-concept";"100";"semantic memory is a part of language";;"2010-05-09 00:46:45";"NADA";;"positive";"0"
"ass_4be66871a3693";"usr_4b64af5545a03";"trm_4a3fd79d0b083";"T1";"trm_4a3fd79d0a891";"concept-concept";"100";"semantic memory is a kind of memory";;"2010-05-09 00:46:57";"NADA";;"positive";"1"
"ass_4be66894b137b";"usr_4b64af5545a03";"trm_4a3fd79d0b083";"T10";"trm_4a3fd79d0a1f4";"concept-concept";"100";"semantic memory is an exact synonym of episodic memory";;"2010-05-09 00:47:32";"exact";;"negative";"0"
"ass_4bf194c64409b";"usr_49a467bf4e0db";"trm_4a3fd79d0b5a7";"T1";"trm_4aae62e4ad209";"concept-concept";"100";"working memory is a kind of cognitive control";;"2010-05-17 12:11:02";"NADA";;"positive";"0"
"ass_4c3e046ca128e";"usr_49a467bf4e0db";"trm_4a3fd79d0ba0d";"T2";"trm_4a3fd79d0b5a7";"concept-concept";"100";"active maintenance is a part of working memory";;"2010-07-14 11:39:40";"NADA";;"positive";"0"
"ass_4c3e04e7e7ec6";"usr_49a467bf4e0db";"trm_4c3e04d656f06";"T2";"trm_4a3fd79d0b5a7";"concept-concept";"100";"interference resolution is a part of working memory";;"2010-07-14 11:41:43";"NADA";;"positive";"0"
"ass_4c3e059f1c90c";"usr_49a467bf4e0db";"trm_4c3e05903e4bb";"T2";"trm_4a3fd79d0b5a7";"concept-concept";"100";"updating is a part of working memory";;"2010-07-14 11:44:47";"NADA";;"positive";"0"
"ass_4c40d1ec945a1";"usr_49a467bf4e0db";"trm_4c40d1d16071e";"T10";"tsk_4a57abb949d69";"task-task";"100";"listening span task is a broader synonym of Salthouse and Babcock Listening Span task ";;"2010-07-16 14:41:00";"broader";;"positive";"0"
"ass_4c40d239bfc80";"usr_49a467bf4e0db";"trm_4c40d22c8a69d";"T10";"trm_4b4a537644d76";"task-task";"100";"CPT is an exact synonym of Continuous Performance Task";;"2010-07-16 14:42:17";"exact";;"positive";"0"
"ass_4da4b23a5996a";"usr_49a467bf4e0db";"trm_4da4b203ad5ae";"T15";"tsk_4a57abb949e1a";"task-task";"100";"selective stop signal task is descended from stop signal task";;"2011-04-12 13:12:42";"NADA";;"positive";"1"
"ass_4dadbe3928370";"usr_4cf5de07654c8";"trm_4dadbe225bdf1";"T15";"trm_4dadbdd0b2b8c";"task-task";"100";"spatial delayed response task is descended from delayed response task";;"2011-04-19 09:54:17";"NADA";;"positive";"1"
"ass_4daddb17d8bf3";"usr_4cf5de07654c8";"trm_4dadbfd771a54";"T15";"tsk_4a57abb949e27";"task-task";"100";"Picture-word Stroop task is descended from Stroop task";;"2011-04-19 11:57:27";"NADA";;"positive";"1"
"ass_4de569da77399";"usr_4de5345b3b6a8";"tsk_4a57abb94989b";"T10";"tsk_4a57abb949f12";"task-task";"100";"Backward digit span task is related to Wechsler Adult Intelligence Scale - Revised";;"2011-05-31 15:21:14";"related";;"positive";"1"
"ass_4de56ffa1eac2";"usr_4de5345b3b6a8";"trm_4a3fd79d0a252";"T16";"tsk_4a57abb949a0d";"concept-task";"70";"executive function is measured by the contrast of backward trials in the Digit span task";;"2011-05-31 15:47:22";"NADA";"cnt_4de56f7a17762";"positive";"1"
"ass_4de5703114ecd";"usr_4de5345b3b6a8";"trm_4a3fd79d0ac9e";"T16";"tsk_4a57abb949a0d";"concept-task";"100";"phonological working memory is measured by the contrast of forward trials in the Digit span task";;"2011-05-31 15:48:17";"NADA";"cnt_4de56f49c2858";"positive";"1"
"ass_4de570b290d6b";"usr_4de5345b3b6a8";"tsk_4a57abb94989b";"T15";"tsk_4a57abb949a0d";"task-task";"100";"Backward digit span task is descended from Digit span task";;"2011-05-31 15:50:26";"NADA";;"positive";"1"
"ass_4de570d1f0298";"usr_4de5345b3b6a8";"tsk_4a57abb94989b";"T10";"tsk_4a57abb949a85";"task-task";"100";"Backward digit span task is an exact synonym of Forward digit span task";;"2011-05-31 15:50:57";"exact";;"negative";"1"
"ass_4de575e576f23";"usr_4de5345b3b6a8";"tsk_4a57abb949a85";"T15";"tsk_4a57abb949a0d";"task-task";"100";"Forward digit span task is descended from Digit span task";;"2011-05-31 16:12:37";"NADA";;"positive";"1"
"ass_4de57954300b6";"usr_4de5345b3b6a8";"trm_4a3fd79d0b64e";"T16";"trm_4d559bcd67c18";"concept-task";"70";"risk seeking is measured by the contrast of negative feedback trials in the Balloon Analogue Risk Task (BART)";;"2011-05-31 16:27:16";"NADA";"cnt_4de5788dbc6ec";"positive";"1"
"ass_4de57b75a33ff";"usr_4de5345b3b6a8";"trm_4d54b8361e93e";"T10";"trm_4d55a2bbcfdff";"task-task";"100";"Behavioral Investment allocation strategy (BIAS) is a narrower synonym of Choice task between risky and non-risky options";;"2011-05-31 16:36:21";"narrower";;"positive";"1"
"ass_4de5807d303d6";"usr_4de5345b3b6a8";"trm_4a3fd79d0a252";"T16";"tsk_4a57abb9498ab";"concept-task";"50";"executive function is measured by the contrast of Negativity Scale trials in the Behavioral Rating Inventory of Executive Function";;"2011-05-31 16:57:49";"NADA";"cnt_4de57f6d43cfd";"positive";"1"
"ass_4de5807d309dc";"usr_4de5345b3b6a8";"trm_4a3fd79d0a252";"T16";"tsk_4a57abb9498ab";"concept-task";"50";"executive function is measured by the contrast of Inconsistency Scale trials in the Behavioral Rating Inventory of Executive Function";;"2011-05-31 16:57:49";"NADA";"cnt_4de57f7db9e97";"positive";"1"
"ass_4de67b370bee8";"usr_4de5345b3b6a8";"trm_4a3fd79d0a533";"T16";"tsk_4a57abb9498ce";"concept-task";"70";"implicit memory is measured by the contrast of object decision trials in the Birmingham Object Recognition Battery";;"2011-06-01 10:47:35";"NADA";"cnt_4de6758abdfa5";"positive";"1"
"ass_4de67c01a4101";"usr_4de5345b3b6a8";"trm_4a3fd79d0b4b5";"T16";"tsk_4a57abb9498ce";"concept-task";"70";"visual perception is measured by the contrast of copying test trials in the Birmingham Object Recognition Battery";;"2011-06-01 10:50:57";"NADA";"cnt_4de6716415d2d";"positive";"1"
"ass_4de67c01a4683";"usr_4de5345b3b6a8";"trm_4a3fd79d0b4b5";"T16";"tsk_4a57abb9498ce";"concept-task";"70";"visual perception is measured by the contrast of overlapping figures test trials in the Birmingham Object Recognition Battery";;"2011-06-01 10:50:57";"NADA";"cnt_4de674d6a85e6";"positive";"1"
"ass_4de67c52b80cb";"usr_4de5345b3b6a8";"trm_4a3fd79d0b4a9";"T16";"tsk_4a57abb9498ce";"concept-task";"100";"visual object recognition is measured by the contrast of picture naming trials in the Birmingham Object Recognition Battery";;"2011-06-01 10:52:18";"NADA";"cnt_4de678e027440";"positive";"1"
"ass_4de67ccbd2da5";"usr_4de5345b3b6a8";"trm_4a3fd79d0a398";"T16";"tsk_4a57abb9498ce";"concept-task";"70";"form perception is measured by the contrast of size match trials in the Birmingham Object Recognition Battery";;"2011-06-01 10:54:19";"NADA";"cnt_4de671af5aeb3";"positive";"1"
"ass_4de67ccbd32d5";"usr_4de5345b3b6a8";"trm_4a3fd79d0a398";"T16";"tsk_4a57abb9498ce";"concept-task";"70";"form perception is measured by the contrast of length match trials in the Birmingham Object Recognition Battery";;"2011-06-01 10:54:19";"NADA";"cnt_4de671d131ff9";"positive";"1"
"ass_4de67ccbd3729";"usr_4de5345b3b6a8";"trm_4a3fd79d0a398";"T16";"tsk_4a57abb9498ce";"concept-task";"70";"form perception is measured by the contrast of orientation match trials in the Birmingham Object Recognition Battery";;"2011-06-01 10:54:19";"NADA";"cnt_4de671e75974e";"positive";"1"
"ass_4de67ccbd3b7c";"usr_4de5345b3b6a8";"trm_4a3fd79d0a398";"T16";"tsk_4a57abb9498ce";"concept-task";"70";"form perception is measured by the contrast of position gap match trials in the Birmingham Object Recognition Battery";;"2011-06-01 10:54:19";"NADA";"cnt_4de6722368730";"positive";"1"
"ass_4de67ccbd3f2e";"usr_4de5345b3b6a8";"trm_4a3fd79d0a398";"T16";"tsk_4a57abb9498ce";"concept-task";"70";"form perception is measured by the contrast of overlapping figures test trials in the Birmingham Object Recognition Battery";;"2011-06-01 10:54:19";"NADA";"cnt_4de674d6a85e6";"positive";"1"
"ass_4de67ccbd4371";"usr_4de5345b3b6a8";"trm_4a3fd79d0a398";"T16";"tsk_4a57abb9498ce";"concept-task";"70";"form perception is measured by the contrast of minimal feature match trials in the Birmingham Object Recognition Battery";;"2011-06-01 10:54:19";"NADA";"cnt_4de677aa1e1bb";"positive";"1"
"ass_4de67ccbd47b9";"usr_4de5345b3b6a8";"trm_4a3fd79d0a398";"T16";"tsk_4a57abb9498ce";"concept-task";"70";"form perception is measured by the contrast of foreshortened match trials in the Birmingham Object Recognition Battery";;"2011-06-01 10:54:19";"NADA";"cnt_4de67800c904a";"positive";"1"
"ass_4de67f2c5351c";"usr_4de5345b3b6a8";"trm_4b7497a289534";"T15";"tsk_4a57abb949f12";"task-task";"100";"Block Design Test is descended from Wechsler Adult Intelligence Scale - Revised";;"2011-06-01 11:04:28";"NADA";;"positive";"1"
"ass_4de687ec38861";"usr_4de5345b3b6a8";"tsk_4a57abb9498df";"T15";"trm_4da881dace79c";"task-task";"100";"Block Tapping Test is descended from Corsi Blocks";;"2011-06-01 11:41:48";"NADA";;"positive";"1"
"ass_4de689faf3493";"usr_4de5345b3b6a8";"trm_4a3fd79d0b4d8";"T16";"tsk_4a57abb9498df";"concept-task";"70";"visual working memory is measured by the contrast of percent correct (number of correct sequences/number of total sequences) trials in the Block Tapping Test";;"2011-06-01 11:50:34";"NADA";"cnt_4de6875390f37";"positive";"1"
"ass_4de68a0fdff68";"usr_4de5345b3b6a8";"trm_4a3fd79d0b4d8";"T1";"trm_4a3fd79d0b49e";"concept-concept";"100";"visual working memory is a kind of visual memory";;"2011-06-01 11:50:55";"NADA";;"positive";"1"
"ass_4de68d337fff9";"usr_4de5345b3b6a8";"trm_4a3fd79d0a7e0";"T16";"tsk_4a57abb9498ef";"concept-task";"100";"lexical retrieval is measured by the contrast of percent correct (number of correct responses/number of total pictures) trials in the Boston Naming Test";;"2011-06-01 12:04:19";"NADA";"cnt_4de68ca153c38";"positive";"1"
"ass_4de68d4f64e6f";"usr_4de5345b3b6a8";"trm_4a3fd79d0b80f";"T16";"tsk_4a57abb9498ef";"concept-task";"70";"lexical access is measured by the contrast of percent correct (number of correct responses/number of total pictures) trials in the Boston Naming Test";;"2011-06-01 12:04:47";"NADA";"cnt_4de68ca153c38";"positive";"1"
"ass_4de6a3dd42e73";"usr_4de5345b3b6a8";"trm_4a3fd79d09cae";"T16";"tsk_4a57abb949900";"concept-task";"50";"chunking is measured by the contrast of immediate recall trials in the California Verbal Learning Test-II";;"2011-06-01 13:41:01";"NADA";"cnt_4de6a278a7dd5";"positive";"1"
"ass_4de6a3dd43bd8";"usr_4de5345b3b6a8";"trm_4a3fd79d09cae";"T16";"tsk_4a57abb949900";"concept-task";"50";"chunking is measured by the contrast of long recall trials in the California Verbal Learning Test-II";;"2011-06-01 13:41:01";"NADA";"cnt_4de6a2f38a5ed";"positive";"1"
"ass_4de6a4309095b";"usr_4de5345b3b6a8";"trm_4a3fd79d0ba01";"T16";"tsk_4a57abb949900";"concept-task";"100";"memory retrieval is measured by the contrast of immediate recall trials in the California Verbal Learning Test-II";;"2011-06-01 13:42:24";"NADA";"cnt_4de6a278a7dd5";"positive";"1"
"ass_4de6a43090ee0";"usr_4de5345b3b6a8";"trm_4a3fd79d0ba01";"T16";"tsk_4a57abb949900";"concept-task";"100";"memory retrieval is measured by the contrast of interference trials in the California Verbal Learning Test-II";;"2011-06-01 13:42:24";"NADA";"cnt_4de6a2be90526";"positive";"1"
"ass_4de6a430912c8";"usr_4de5345b3b6a8";"trm_4a3fd79d0ba01";"T16";"tsk_4a57abb949900";"concept-task";"100";"memory retrieval is measured by the contrast of long recall trials in the California Verbal Learning Test-II";;"2011-06-01 13:42:24";"NADA";"cnt_4de6a2f38a5ed";"positive";"1"
"ass_4de6a4309171f";"usr_4de5345b3b6a8";"trm_4a3fd79d0ba01";"T16";"tsk_4a57abb949900";"concept-task";"100";"memory retrieval is measured by the contrast of recognition trial trials in the California Verbal Learning Test-II";;"2011-06-01 13:42:24";"NADA";"cnt_4de6a334313b1";"positive";"1"
"ass_4de6a4670c0fb";"usr_4de5345b3b6a8";"trm_4a3fd79d0afab";"T16";"tsk_4a57abb949900";"concept-task";"100";"retroactive interference is measured by the contrast of interference trials in the California Verbal Learning Test-II";;"2011-06-01 13:43:19";"NADA";"cnt_4de6a2be90526";"positive";"1"
"ass_4de6a48eb6473";"usr_4de5345b3b6a8";"trm_4a3fd79d0ba6c";"T16";"tsk_4a57abb949900";"concept-task";"100";"working memory retrieval is measured by the contrast of immediate recall trials in the California Verbal Learning Test-II";;"2011-06-01 13:43:58";"NADA";"cnt_4de6a278a7dd5";"positive";"1"
"ass_4de6af1e3f8cb";"usr_4de5345b3b6a8";"trm_4a3fd79d0a30c";"T16";"tsk_4a57abb949912";"concept-task";"100";"face recognition is measured by the contrast of same images trials in the Cambridge Face Memory Test";;"2011-06-01 14:29:02";"NADA";"cnt_4de6ad74bd885";"positive";"1"
"ass_4de6af1e401df";"usr_4de5345b3b6a8";"trm_4a3fd79d0a30c";"T16";"tsk_4a57abb949912";"concept-task";"100";"face recognition is measured by the contrast of novel images trials in the Cambridge Face Memory Test";;"2011-06-01 14:29:02";"NADA";"cnt_4de6add395167";"positive";"1"
"ass_4de6af1e40660";"usr_4de5345b3b6a8";"trm_4a3fd79d0a30c";"T16";"tsk_4a57abb949912";"concept-task";"100";"face recognition is measured by the contrast of novel images with noise trials in the Cambridge Face Memory Test";;"2011-06-01 14:29:02";"NADA";"cnt_4de6ae3e231dd";"positive";"1"
"ass_4de6b61fc368f";"usr_4de5345b3b6a8";"trm_4a3fd79d0b64e";"T16";"trm_4d54b2cc0f943";"concept-task";"70";"risk seeking is measured by the contrast of correct answers times probability of each color trials in the Cambridge Gambling Task";;"2011-06-01 14:58:55";"NADA";"cnt_4de6b5d032f89";"positive";"1"
"ass_4de6b6b7447d8";"usr_4de5345b3b6a8";"trm_4b6525253c63f";"T16";"trm_4d54b2cc0f943";"concept-task";"100";"reward is measured by the contrast of ratio trials in the Cambridge Gambling Task";;"2011-06-01 15:01:27";"NADA";"cnt_4de6b69d1e765";"positive";"1"
"ass_4de6b9da441ac";"usr_4de5345b3b6a8";"trm_4a3fd79d0b077";"T16";"tsk_4a57abb949923";"concept-task";"70";"semantic knowledge is measured by the contrast of total correct responses for all categories trials in the category fluency test";;"2011-06-01 15:14:50";"NADA";"cnt_4de6b87a44743";"positive";"1"
"ass_4de6ba06976d1";"usr_4de5345b3b6a8";"trm_4a3fd79d0b083";"T16";"tsk_4a57abb949923";"concept-task";"70";"semantic memory is measured by the contrast of total correct responses for all categories trials in the category fluency test";;"2011-06-01 15:15:34";"NADA";"cnt_4de6b87a44743";"positive";"1"
"ass_4de6ba25f193c";"usr_4de5345b3b6a8";"trm_4a3fd79d0b87a";"T16";"tsk_4a57abb949923";"concept-task";"70";"semantic processing is measured by the contrast of total correct responses for all categories trials in the category fluency test";;"2011-06-01 15:16:05";"NADA";"cnt_4de6b87a44743";"positive";"1"
"ass_4de6bc0f1f77c";"usr_4de5345b3b6a8";"trm_4a3fd79d0a6ad";"T16";"trm_4b843655d5d75";"concept-task";"100";"interference is measured by the contrast of Incongruent trials in the Chimeric Animal Stroop Task";;"2011-06-01 15:24:15";"NADA";"cnt_4b8436c051c94";"positive";"1"
"ass_4de6c14ad54e8";"usr_4de5345b3b6a8";"trm_4a3fd79d0af71";"T16";"tsk_4a57abb949934";"concept-task";"100";"response selection is measured by the contrast of stimulus trials in the choice reaction time task";;"2011-06-01 15:46:34";"NADA";"cnt_4de6bfac7a994";"positive";"1"
"ass_4de6c1aa37d7d";"usr_4de5345b3b6a8";"trm_4a3fd79d0af66";"T16";"tsk_4a57abb949934";"concept-task";"100";"response inhibition is measured by the contrast of non-stimulus trials in the choice reaction time task";;"2011-06-01 15:48:10";"NADA";"cnt_4de6bfdf5905a";"positive";"1"
"ass_4de6c1e5e4a47";"usr_4de5345b3b6a8";"trm_4a3fd79d0b61f";"T16";"tsk_4a57abb949934";"concept-task";"100";"decision is measured by the contrast of stimulus trials in the choice reaction time task";;"2011-06-01 15:49:09";"NADA";"cnt_4de6bfac7a994";"positive";"1"
"ass_4de6c1e5e4f3f";"usr_4de5345b3b6a8";"trm_4a3fd79d0b61f";"T16";"tsk_4a57abb949934";"concept-task";"100";"decision is measured by the contrast of non-stimulus trials in the choice reaction time task";;"2011-06-01 15:49:09";"NADA";"cnt_4de6bfdf5905a";"positive";"1"
"ass_4de6c1e5e53d4";"usr_4de5345b3b6a8";"trm_4a3fd79d0b61f";"T16";"tsk_4a57abb949934";"concept-task";"100";"decision is measured by the contrast of right hand trials in the choice reaction time task";;"2011-06-01 15:49:09";"NADA";"cnt_4de6c00e51eda";"positive";"1"
"ass_4de6c1e5e586e";"usr_4de5345b3b6a8";"trm_4a3fd79d0b61f";"T16";"tsk_4a57abb949934";"concept-task";"100";"decision is measured by the contrast of left hand trials in the choice reaction time task";;"2011-06-01 15:49:09";"NADA";"cnt_4de6c02033259";"positive";"1"
"ass_4de6c24a3cb58";"usr_4de5345b3b6a8";"trm_4a3fd79d09c8c";"T16";"tsk_4a57abb949934";"concept-task";"100";"choice is measured by the contrast of stimulus trials in the choice reaction time task";;"2011-06-01 15:50:50";"NADA";"cnt_4de6bfac7a994";"positive";"1"
"ass_4de6c24a3d07c";"usr_4de5345b3b6a8";"trm_4a3fd79d09c8c";"T16";"tsk_4a57abb949934";"concept-task";"100";"choice is measured by the contrast of non-stimulus trials in the choice reaction time task";;"2011-06-01 15:50:50";"NADA";"cnt_4de6bfdf5905a";"positive";"1"
"ass_4de6c24a3d46d";"usr_4de5345b3b6a8";"trm_4a3fd79d09c8c";"T16";"tsk_4a57abb949934";"concept-task";"100";"choice is measured by the contrast of right hand trials in the choice reaction time task";;"2011-06-01 15:50:50";"NADA";"cnt_4de6c00e51eda";"positive";"1"
"ass_4de6c24a3d85c";"usr_4de5345b3b6a8";"trm_4a3fd79d09c8c";"T16";"tsk_4a57abb949934";"concept-task";"100";"choice is measured by the contrast of left hand trials in the choice reaction time task";;"2011-06-01 15:50:50";"NADA";"cnt_4de6c02033259";"positive";"1"
"ass_4de6c3db83534";"usr_4de5345b3b6a8";"trm_4a3fd79d0a61f";"T16";"tsk_4a57abb949879";"concept-task";"100";"inhibition of return is measured by the contrast of magnitude of response to second stimulus trials in the attentional blink task";;"2011-06-01 15:57:31";"NADA";"cnt_4de6c3c82d46d";"positive";"1"
"ass_4de6c6bc89d6c";"usr_4de5345b3b6a8";"trm_4a3fd79d0b64e";"T16";"trm_4d55a2bbcfdff";"concept-task";"100";"risk seeking is measured by the contrast of risky option trials in the Choice task between risky and non-risky options";;"2011-06-01 16:09:48";"NADA";"cnt_4de6c5f53e708";"positive";"1"
"ass_4de6c6e096c94";"usr_4de5345b3b6a8";"trm_4d54b2cc0f943";"T10";"trm_4d55a2bbcfdff";"task-task";"70";"Cambridge Gambling Task is a narrower synonym of Choice task between risky and non-risky options";;"2011-06-01 16:10:24";"narrower";;"positive";"1"
"ass_4de6cc870db82";"usr_4de5345b3b6a8";"trm_4a3fd79d098c9";"T16";"trm_4c898acd1f28e";"concept-task";"100";"association learning is measured by the contrast of conditioned response trials in the Classical Conditioning";;"2011-06-01 16:34:31";"NADA";"cnt_4de6c9842dbbe";"positive";"1"
"ass_4de6ccf161425";"usr_4de5345b3b6a8";"trm_4a3fd79d0ab70";"T16";"trm_4c898acd1f28e";"concept-task";"100";"pavlovian conditioning is measured by the contrast of conditioned stimulus trials in the Classical Conditioning";;"2011-06-01 16:36:17";"NADA";"cnt_4de6c84f74508";"positive";"1"
"ass_4de6ccf161981";"usr_4de5345b3b6a8";"trm_4a3fd79d0ab70";"T16";"trm_4c898acd1f28e";"concept-task";"100";"pavlovian conditioning is measured by the contrast of unconditioned stimulus trials in the Classical Conditioning";;"2011-06-01 16:36:17";"NADA";"cnt_4de6c8bbe6734";"positive";"1"
"ass_4de6ccf161e12";"usr_4de5345b3b6a8";"trm_4a3fd79d0ab70";"T16";"trm_4c898acd1f28e";"concept-task";"100";"pavlovian conditioning is measured by the contrast of unconditioned response trials in the Classical Conditioning";;"2011-06-01 16:36:17";"NADA";"cnt_4de6c945846f2";"positive";"1"
"ass_4de6ccf162213";"usr_4de5345b3b6a8";"trm_4a3fd79d0ab70";"T16";"trm_4c898acd1f28e";"concept-task";"100";"pavlovian conditioning is measured by the contrast of conditioned response trials in the Classical Conditioning";;"2011-06-01 16:36:17";"NADA";"cnt_4de6c9842dbbe";"positive";"1"
"ass_4de6cd30e36bf";"usr_4de5345b3b6a8";"trm_4a3fd79d0a637";"T16";"trm_4c898acd1f28e";"concept-task";"70";"instinct is measured by the contrast of unconditioned stimulus trials in the Classical Conditioning";;"2011-06-01 16:37:20";"NADA";"cnt_4de6c8bbe6734";"positive";"1"
"ass_4de6cd66d8348";"usr_4de5345b3b6a8";"trm_4a3fd79d09b28";"T16";"trm_4c898acd1f28e";"concept-task";"100";"automaticity is measured by the contrast of unconditioned stimulus trials in the Classical Conditioning";;"2011-06-01 16:38:14";"NADA";"cnt_4de6c8bbe6734";"positive";"1"
"ass_4de6cd66d880e";"usr_4de5345b3b6a8";"trm_4a3fd79d09b28";"T16";"trm_4c898acd1f28e";"concept-task";"100";"automaticity is measured by the contrast of unconditioned response trials in the Classical Conditioning";;"2011-06-01 16:38:14";"NADA";"cnt_4de6c945846f2";"positive";"1"
"ass_4de6cd66d8bf1";"usr_4de5345b3b6a8";"trm_4a3fd79d09b28";"T16";"trm_4c898acd1f28e";"concept-task";"100";"automaticity is measured by the contrast of conditioned response trials in the Classical Conditioning";;"2011-06-01 16:38:14";"NADA";"cnt_4de6c9842dbbe";"positive";"1"
"ass_4de6d5c739c46";"usr_4de5345b3b6a8";"trm_4a3fd79d0b340";"T16";"tsk_4a57abb9499a8";"concept-task";"50";"syntactic parsing is measured by the contrast of formulating sentences subtest trials in the Clinical Evaluation of Language Fundamentals-3";;"2011-06-01 17:13:59";"NADA";"cnt_4de6d03ae67ac";"positive";"1"
"ass_4de6d5c73a49c";"usr_4de5345b3b6a8";"trm_4a3fd79d0b340";"T16";"tsk_4a57abb9499a8";"concept-task";"50";"syntactic parsing is measured by the contrast of sentence structure subtest trials in the Clinical Evaluation of Language Fundamentals-3";;"2011-06-01 17:13:59";"NADA";"cnt_4de6d0d5790a3";"positive";"1"
"ass_4de6d5c73a91c";"usr_4de5345b3b6a8";"trm_4a3fd79d0b340";"T16";"tsk_4a57abb9499a8";"concept-task";"50";"syntactic parsing is measured by the contrast of sentence assembly subtest trials in the Clinical Evaluation of Language Fundamentals-3";;"2011-06-01 17:13:59";"NADA";"cnt_4de6d45dd9ceb";"positive";"1"
"ass_4de6d61d75ee3";"usr_4de5345b3b6a8";"trm_4a3fd79d0a775";"T16";"tsk_4a57abb9499a8";"concept-task";"50";"language comprehension is measured by the contrast of concepts and directions subtest trials in the Clinical Evaluation of Language Fundamentals-3";;"2011-06-01 17:15:25";"NADA";"cnt_4de6d1194349d";"positive";"1"
"ass_4de6d61d7646d";"usr_4de5345b3b6a8";"trm_4a3fd79d0a775";"T16";"tsk_4a57abb9499a8";"concept-task";"50";"language comprehension is measured by the contrast of semantic relationships subtest trials in the Clinical Evaluation of Language Fundamentals-3";;"2011-06-01 17:15:25";"NADA";"cnt_4de6d42855dcd";"positive";"1"
"ass_4de6d67712d7a";"usr_4de5345b3b6a8";"trm_4a3fd79d0a7f8";"T16";"tsk_4a57abb9499a8";"concept-task";"70";"linguistic competence is measured by the contrast of formulating sentences subtest trials in the Clinical Evaluation of Language Fundamentals-3";;"2011-06-01 17:16:55";"NADA";"cnt_4de6d03ae67ac";"positive";"1"
"ass_4de6d6771330f";"usr_4de5345b3b6a8";"trm_4a3fd79d0a7f8";"T16";"tsk_4a57abb9499a8";"concept-task";"70";"linguistic competence is measured by the contrast of sentence structure subtest trials in the Clinical Evaluation of Language Fundamentals-3";;"2011-06-01 17:16:55";"NADA";"cnt_4de6d0d5790a3";"positive";"1"
"ass_4de6d677137e3";"usr_4de5345b3b6a8";"trm_4a3fd79d0a7f8";"T16";"tsk_4a57abb9499a8";"concept-task";"70";"linguistic competence is measured by the contrast of word classes subtest trials in the Clinical Evaluation of Language Fundamentals-3";;"2011-06-01 17:16:55";"NADA";"cnt_4de6d1650c739";"positive";"1"
"ass_4de6d67713cc6";"usr_4de5345b3b6a8";"trm_4a3fd79d0a7f8";"T16";"tsk_4a57abb9499a8";"concept-task";"70";"linguistic competence is measured by the contrast of word structure subtest trials in the Clinical Evaluation of Language Fundamentals-3";;"2011-06-01 17:16:55";"NADA";"cnt_4de6d2747197f";"positive";"1"
"ass_4de6d677140c4";"usr_4de5345b3b6a8";"trm_4a3fd79d0a7f8";"T16";"tsk_4a57abb9499a8";"concept-task";"70";"linguistic competence is measured by the contrast of sentence assembly subtest trials in the Clinical Evaluation of Language Fundamentals-3";;"2011-06-01 17:16:55";"NADA";"cnt_4de6d45dd9ceb";"positive";"1"
"ass_4de6d6b85d8ac";"usr_4de5345b3b6a8";"trm_4a3fd79d0b06b";"T16";"tsk_4a57abb9499a8";"concept-task";"70";"semantic category is measured by the contrast of semantic relationships subtest trials in the Clinical Evaluation of Language Fundamentals-3";;"2011-06-01 17:18:00";"NADA";"cnt_4de6d42855dcd";"positive";"1"
"ass_4de6d6fd640d8";"usr_4de5345b3b6a8";"trm_4a3fd79d0b892";"T16";"tsk_4a57abb9499a8";"concept-task";"70";"sentence comprehension is measured by the contrast of sentence structure subtest trials in the Clinical Evaluation of Language Fundamentals-3";;"2011-06-01 17:19:09";"NADA";"cnt_4de6d0d5790a3";"positive";"1"
"ass_4de6d6fd645f8";"usr_4de5345b3b6a8";"trm_4a3fd79d0b892";"T16";"tsk_4a57abb9499a8";"concept-task";"70";"sentence comprehension is measured by the contrast of sentence assembly subtest trials in the Clinical Evaluation of Language Fundamentals-3";;"2011-06-01 17:19:09";"NADA";"cnt_4de6d45dd9ceb";"positive";"1"
"ass_4de6d7350e4f6";"usr_4de5345b3b6a8";"trm_4a3fd79d0b56b";"T16";"tsk_4a57abb9499a8";"concept-task";"70";"word order is measured by the contrast of sentence structure subtest trials in the Clinical Evaluation of Language Fundamentals-3";;"2011-06-01 17:20:05";"NADA";"cnt_4de6d0d5790a3";"positive";"1"
"ass_4de6d773724d6";"usr_4de5345b3b6a8";"trm_4a3fd79d0b1f7";"T16";"tsk_4a57abb9499a8";"concept-task";"70";"speech perception is measured by the contrast of concepts and directions subtest trials in the Clinical Evaluation of Language Fundamentals-3";;"2011-06-01 17:21:07";"NADA";"cnt_4de6d1194349d";"positive";"1"
"ass_4de6d8550457b";"usr_4de5345b3b6a8";"trm_4c40d2a93ea15";"T10";"trm_4c40d22c8a69d";"task-task";"70";"AX-CPT task is a narrower synonym of CPT";;"2011-06-01 17:24:53";"narrower";;"positive";"1"
"ass_4de7b94f234c1";"usr_4de5345b3b6a8";"trm_4a3fd79d09d93";"T16";"tsk_4a57abb9499b8";"concept-task";"100";"color perception is measured by the contrast of accuracy trials in the color-discrimination task";;"2011-06-02 09:24:47";"NADA";"cnt_4de7b92a0ce43";"positive";"1"
"ass_4de7b9d456f35";"usr_4de5345b3b6a8";"trm_4b843655d5d75";"T15";"tsk_4a57abb949e27";"task-task";"100";"Chimeric Animal Stroop Task is descended from Stroop task";;"2011-06-02 09:27:00";"NADA";;"positive";"1"
"ass_4de7ba741930e";"usr_4de5345b3b6a8";"trm_4b1968619b00b";"T15";"tsk_4a57abb949e27";"task-task";"100";"Color-word Stroop Task is descended from Stroop task";;"2011-06-02 09:29:40";"NADA";;"positive";"1"
"ass_4de7baab14dff";"usr_4de5345b3b6a8";"trm_4b1968619b00b";"T10";"tsk_4a57abb949e27";"task-task";"100";"Color-word Stroop Task is a narrower synonym of Stroop task";;"2011-06-02 09:30:35";"narrower";;"positive";"1"
"ass_4de7bd40d54c0";"usr_4de5345b3b6a8";"trm_4a3fd79d0af66";"T16";"trm_4b1968619b00b";"concept-task";"70";"response inhibition is measured by the contrast of Incongruent trials in the Color-word Stroop Task";;"2011-06-02 09:41:36";"NADA";"cnt_4b1969ffa81fe";"positive";"1"
"ass_4de7bd40d5bc7";"usr_4de5345b3b6a8";"trm_4a3fd79d0af66";"T16";"trm_4b1968619b00b";"concept-task";"70";"response inhibition is measured by the contrast of Incongruent - Congruent trials in the Color-word Stroop Task";;"2011-06-02 09:41:36";"NADA";"cnt_4b196a25d1671";"positive";"1"
"ass_4de7bd40d5fee";"usr_4de5345b3b6a8";"trm_4a3fd79d0af66";"T16";"trm_4b1968619b00b";"concept-task";"70";"response inhibition is measured by the contrast of Incongruent - Neutral trials in the Color-word Stroop Task";;"2011-06-02 09:41:36";"NADA";"cnt_4b196a314e3c4";"positive";"1"
"ass_4de7bf55ae554";"usr_4de5345b3b6a8";"trm_4a3fd79d0a613";"T16";"trm_4cacf3fbc503b";"concept-task";"70";"inhibition is measured by the contrast of Stop-critical trial trials in the Conditional stop signal task";;"2011-06-02 09:50:29";"NADA";"cnt_4cacf44631b29";"positive";"1"
"ass_4de7bf85c2dd2";"usr_4de5345b3b6a8";"trm_4a3fd79d0af66";"T16";"trm_4cacf3fbc503b";"concept-task";"70";"response inhibition is measured by the contrast of Stop-critical trial trials in the Conditional stop signal task";;"2011-06-02 09:51:17";"NADA";"cnt_4cacf44631b29";"positive";"1"
"ass_4de7c00482999";"usr_4de5345b3b6a8";"trm_4a3fd79d0b5ef";"T16";"trm_4b4a537644d76";"concept-task";"70";"attentional focusing is measured by the contrast of Target trials in the Continuous Performance Task";;"2011-06-02 09:53:24";"NADA";"cnt_4b4a538defadc";"positive";"1"
"ass_4de7c6ce4e917";"usr_4de5345b3b6a8";"trm_4a3fd79d0b58f";"T16";"tsk_4a57abb9499c7";"concept-task";"70";"word recognition is measured by the contrast of number of correct identifications trials in the continuous recognition paradigm";;"2011-06-02 10:22:22";"NADA";"cnt_4de7c6ae5a2a1";"positive";"1"
"ass_4de7c7328108c";"usr_4de5345b3b6a8";"trm_4a3fd79d0a323";"T16";"tsk_4a57abb9499c7";"concept-task";"70";"false memory is measured by the contrast of number of false positives trials in the continuous recognition paradigm";;"2011-06-02 10:24:02";"NADA";"cnt_4de7c5b19456f";"positive";"1"
"ass_4de7c7c634d5f";"usr_4de5345b3b6a8";"trm_4a3fd79d0b908";"T16";"tsk_4a57abb9499c7";"concept-task";"70";"forgetting is measured by the contrast of number of false negatives (missed words) trials in the continuous recognition paradigm";;"2011-06-02 10:26:30";"NADA";"cnt_4de7c5df194ea";"positive";"1"
"ass_4de7cfec95073";"usr_4de5345b3b6a8";"trm_4c898b29660b0";"T10";"tsk_4a57abb9499c7";"task-task";"100";"Cued Explicit Recognition is related to continuous recognition paradigm";;"2011-06-02 11:01:16";"related";;"positive";"1"
"ass_4de7d2be1e31a";"usr_4de5345b3b6a8";"trm_4a3fd79d0b58f";"T16";"trm_4c898b29660b0";"concept-task";"70";"word recognition is measured by the contrast of hit rate (number of correct recognitions) trials in the Cued Explicit Recognition";;"2011-06-02 11:13:18";"NADA";"cnt_4de7d07b4366d";"positive";"1"
"ass_4de7d2e46b7b4";"usr_4de5345b3b6a8";"trm_4a3fd79d0b908";"T16";"trm_4c898b29660b0";"concept-task";"70";"forgetting is measured by the contrast of miss rate (number of items subject failed to recognize) trials in the Cued Explicit Recognition";;"2011-06-02 11:13:56";"NADA";"cnt_4de7d0b31ce2e";"positive";"1"
"ass_4de7d8be8084c";"usr_4de5345b3b6a8";"trm_4a3fd79d0b64e";"T16";"tsk_4a57abb9499d5";"concept-task";"70";"risk seeking is measured by the contrast of number or value of rewards times probability of reward trials in the Cups task";;"2011-06-02 11:38:54";"NADA";"cnt_4de7d854ceb50";"positive";"1"
"ass_4de7d92057125";"usr_4de5345b3b6a8";"trm_4a3fd79d0afcf";"T16";"tsk_4a57abb9499d5";"concept-task";"70";"risk is measured by the contrast of probability of highest reward trials in the Cups task";;"2011-06-02 11:40:32";"NADA";"cnt_4de7d90ca34da";"positive";"1"
"ass_4de7d937b900a";"usr_4de5345b3b6a8";"trm_4b6525253c63f";"T16";"tsk_4a57abb9499d5";"concept-task";"70";"reward is measured by the contrast of money earned trials in the Cups task";;"2011-06-02 11:40:55";"NADA";"cnt_4de7d90024fe4";"positive";"1"
"ass_4de7d9505f787";"usr_4de5345b3b6a8";"trm_4d54b2cc0f943";"T10";"tsk_4a57abb949ae5";"task-task";"70";"Cambridge Gambling Task is related to Iowa Gambling Task";;"2011-06-02 11:41:20";"related";;"positive";"1"
"ass_4de7dec3889b8";"usr_4de5345b3b6a8";"trm_4a3fd79d0b392";"T16";"trm_4c898b4b463aa";"concept-task";"70";"theory of mind is measured by the contrast of object occlusion and misinformation scores trials in the Deception Task";;"2011-06-02 12:04:35";"NADA";"cnt_4de7ddfb129a6";"positive";"1"
"ass_4de7dec3892e3";"usr_4de5345b3b6a8";"trm_4a3fd79d0b392";"T16";"trm_4c898b4b463aa";"concept-task";"70";"theory of mind is measured by the contrast of accuracy trials in the Deception Task";;"2011-06-02 12:04:35";"NADA";"cnt_4de7de54cdce7";"positive";"1"
"ass_4de7deea5cdf5";"usr_4de5345b3b6a8";"trm_4a3fd79d0a02c";"T16";"trm_4c898b4b463aa";"concept-task";"70";"deception is measured by the contrast of hider trials in the Deception Task";;"2011-06-02 12:05:14";"NADA";"cnt_4de7dc695fabb";"positive";"1"
"ass_4de7e5ff3ca7d";"usr_4de5345b3b6a8";"trm_4a3fd79d09ece";"T16";"trm_4c898b8c2d071";"concept-task";"70";"convergent thinking is measured by the contrast of valid trials in the Deductive Reasoning Task";;"2011-06-02 12:35:27";"NADA";"cnt_4de7e52cd0ad6";"positive";"1"
"ass_4de7e6279f71f";"usr_4de5345b3b6a8";"trm_4a3fd79d0a80f";"T16";"trm_4c898b8c2d071";"concept-task";"70";"logic is measured by the contrast of valid trials in the Deductive Reasoning Task";;"2011-06-02 12:36:07";"NADA";"cnt_4de7e52cd0ad6";"positive";"1"
"ass_4de7e6279fd0e";"usr_4de5345b3b6a8";"trm_4a3fd79d0a80f";"T16";"trm_4c898b8c2d071";"concept-task";"70";"logic is measured by the contrast of invalid trials in the Deductive Reasoning Task";;"2011-06-02 12:36:07";"NADA";"cnt_4de7e54b3b8d8";"positive";"1"
"ass_4de7e6a8a5f50";"usr_4de5345b3b6a8";"trm_4a3fd79d0a81b";"T16";"trm_4c898b8c2d071";"concept-task";"70";"logical reasoning is measured by the contrast of valid trials in the Deductive Reasoning Task";;"2011-06-02 12:38:16";"NADA";"cnt_4de7e52cd0ad6";"positive";"1"
"ass_4de7e6a8a6464";"usr_4de5345b3b6a8";"trm_4a3fd79d0a81b";"T16";"trm_4c898b8c2d071";"concept-task";"70";"logical reasoning is measured by the contrast of invalid trials in the Deductive Reasoning Task";;"2011-06-02 12:38:16";"NADA";"cnt_4de7e54b3b8d8";"positive";"1"
"ass_4de7e6c26fa49";"usr_4de5345b3b6a8";"trm_4a3fd79d0a827";"T16";"trm_4c898b8c2d071";"concept-task";"70";"logical thinking is measured by the contrast of valid trials in the Deductive Reasoning Task";;"2011-06-02 12:38:42";"NADA";"cnt_4de7e52cd0ad6";"positive";"1"
"ass_4de7e6c26ff75";"usr_4de5345b3b6a8";"trm_4a3fd79d0a827";"T16";"trm_4c898b8c2d071";"concept-task";"70";"logical thinking is measured by the contrast of invalid trials in the Deductive Reasoning Task";;"2011-06-02 12:38:42";"NADA";"cnt_4de7e54b3b8d8";"positive";"1"
"ass_4de7e6f8e469e";"usr_4de5345b3b6a8";"trm_4a3fd79d09e07";"T16";"trm_4c898b8c2d071";"concept-task";"70";"conditional reasoning is measured by the contrast of valid trials in the Deductive Reasoning Task";;"2011-06-02 12:39:36";"NADA";"cnt_4de7e52cd0ad6";"positive";"1"
"ass_4de7e713d5662";"usr_4de5345b3b6a8";"trm_4a3fd79d0a072";"T16";"trm_4c898b8c2d071";"concept-task";"100";"deductive reasoning is measured by the contrast of valid trials in the Deductive Reasoning Task";;"2011-06-02 12:40:03";"NADA";"cnt_4de7e52cd0ad6";"positive";"1"
"ass_4de7e713d5c60";"usr_4de5345b3b6a8";"trm_4a3fd79d0a072";"T16";"trm_4c898b8c2d071";"concept-task";"100";"deductive reasoning is measured by the contrast of invalid trials in the Deductive Reasoning Task";;"2011-06-02 12:40:03";"NADA";"cnt_4de7e54b3b8d8";"positive";"1"
"ass_4de7e7589393a";"usr_4de5345b3b6a8";"trm_4a3fd79d0aec1";"T16";"trm_4c898b8c2d071";"concept-task";"70";"reasoning is measured by the contrast of valid trials in the Deductive Reasoning Task";;"2011-06-02 12:41:12";"NADA";"cnt_4de7e52cd0ad6";"positive";"1"
"ass_4de7e75893e2c";"usr_4de5345b3b6a8";"trm_4a3fd79d0aec1";"T16";"trm_4c898b8c2d071";"concept-task";"70";"reasoning is measured by the contrast of invalid trials in the Deductive Reasoning Task";;"2011-06-02 12:41:12";"NADA";"cnt_4de7e54b3b8d8";"positive";"1"
"ass_4de90d6b2e345";"usr_4de5345b3b6a8";"tsk_4a57abb9499e3";"T10";"tsk_4a57abb949e0c";"task-task";"70";"delayed match to sample task is a broader synonym of Sternberg delayed recognition task";;"2011-06-03 09:35:55";"broader";;"positive";"1"
"ass_4de9103c56622";"usr_4de5345b3b6a8";"trm_4a3fd79d0ba0d";"T16";"tsk_4a57abb9499e3";"concept-task";"70";"active maintenance is measured by the contrast of reaction time to correct stimuli trials in the delayed match to sample task";;"2011-06-03 09:47:56";"NADA";"cnt_4de90fe2177d0";"positive";"1"
"ass_4de9108b9868e";"usr_4de5345b3b6a8";"trm_4a3fd79d0a431";"T16";"tsk_4a57abb9499e3";"concept-task";"70";"goal maintenance is measured by the contrast of reaction time to correct stimuli trials in the delayed match to sample task";;"2011-06-03 09:49:15";"NADA";"cnt_4de90fe2177d0";"positive";"1"
"ass_4de910d83d233";"usr_4de5345b3b6a8";"trm_4a3fd79d0b92c";"T16";"tsk_4a57abb9499e3";"concept-task";"70";"memory decay is measured by the contrast of reaction time to correct stimuli trials in the delayed match to sample task";;"2011-06-03 09:50:32";"NADA";"cnt_4de90fe2177d0";"positive";"1"
"ass_4de911ec5284f";"usr_4de5345b3b6a8";"trm_4a3fd79d0ba6c";"T16";"tsk_4a57abb9499e3";"concept-task";"70";"working memory retrieval is measured by the contrast of reaction time to correct stimuli trials in the delayed match to sample task";;"2011-06-03 09:55:08";"NADA";"cnt_4de90fe2177d0";"positive";"1"
"ass_4de9120b3334a";"usr_4de5345b3b6a8";"trm_4a3fd79d0b5a7";"T16";"tsk_4a57abb9499e3";"concept-task";"70";"working memory is measured by the contrast of reaction time to correct stimuli trials in the delayed match to sample task";;"2011-06-03 09:55:39";"NADA";"cnt_4de90fe2177d0";"positive";"1"
"ass_4de91497a8709";"usr_4de5345b3b6a8";"trm_4a3fd79d0b92c";"T16";"tsk_4a57abb9499f1";"concept-task";"70";"memory decay is measured by the contrast of delay minus no delay trials in the delayed nonmatch to sample task";;"2011-06-03 10:06:31";"NADA";"cnt_4b4a609f11b96";"positive";"1"
"ass_4de914b9396d4";"usr_4de5345b3b6a8";"trm_4a3fd79d0b5a7";"T16";"tsk_4a57abb9499f1";"concept-task";"70";"working memory is measured by the contrast of delay minus no delay trials in the delayed nonmatch to sample task";;"2011-06-03 10:07:05";"NADA";"cnt_4b4a609f11b96";"positive";"1"
"ass_4de91bb6d3875";"usr_4de5345b3b6a8";"trm_4a3fd79d0ba01";"T16";"tsk_4a57abb9499ff";"concept-task";"70";"memory retrieval is measured by the contrast of d&#39; trials in the delayed recall test";;"2011-06-03 10:36:54";"NADA";"cnt_4de919cf2b2bd";"positive";"1"
"ass_4de91df367f04";"usr_4de5345b3b6a8";"trm_4a3fd79d0b64e";"T16";"trm_4d559d2703bae";"concept-task";"70";"risk seeking is measured by the contrast of negative feedback trials in the Devils Task";;"2011-06-03 10:46:27";"NADA";"cnt_4de91ce5f279a";"positive";"1"
"ass_4de9261f197fa";"usr_4de5345b3b6a8";"trm_4a3fd79d0b5a7";"T16";"tsk_4a57abb949a0d";"concept-task";"100";"working memory is measured by the contrast of forward trials in the Digit span task";;"2011-06-03 11:21:19";"NADA";"cnt_4de56f49c2858";"positive";"1"
"ass_4de9261f19fdd";"usr_4de5345b3b6a8";"trm_4a3fd79d0b5a7";"T16";"tsk_4a57abb949a0d";"concept-task";"100";"working memory is measured by the contrast of backward trials in the Digit span task";;"2011-06-03 11:21:19";"NADA";"cnt_4de56f7a17762";"positive";"1"
"ass_4de927b6a7bc0";"usr_4de5345b3b6a8";"tsk_4a57abb949a25";"T15";"tsk_4a57abb949f12";"task-task";"50";"Digit/Symbol Coding test is descended from Wechsler Adult Intelligence Scale - Revised";;"2011-06-03 11:28:06";"NADA";;"positive";"1"
"ass_4de92baf4d1c0";"usr_4de5345b3b6a8";"trm_4a3fd79d0a972";"T16";"tsk_4a57abb949a25";"concept-task";"70";"motor control is measured by the contrast of digit/symbol coding - symbol copy trials in the Digit/Symbol Coding test";;"2011-06-03 11:45:03";"NADA";"cnt_4de92b983089e";"positive";"1"
"ass_4de92bdd76640";"usr_4de5345b3b6a8";"trm_4a3fd79d0b5a7";"T16";"tsk_4a57abb949a25";"concept-task";"70";"working memory is measured by the contrast of immediate memory copy trials in the Digit/Symbol Coding test";;"2011-06-03 11:45:49";"NADA";"cnt_4de929a613652";"positive";"1"
"ass_4de92c0ae0e07";"usr_4de5345b3b6a8";"trm_4a3fd79d0b8c1";"T16";"tsk_4a57abb949a25";"concept-task";"70";"active retrieval is measured by the contrast of immediate memory copy trials in the Digit/Symbol Coding test";;"2011-06-03 11:46:34";"NADA";"cnt_4de929a613652";"positive";"1"
"ass_4de92c0ae14d1";"usr_4de5345b3b6a8";"trm_4a3fd79d0b8c1";"T16";"tsk_4a57abb949a25";"concept-task";"70";"active retrieval is measured by the contrast of general memory copy trials in the Digit/Symbol Coding test";;"2011-06-03 11:46:34";"NADA";"cnt_4de929f98367a";"positive";"1"
"ass_4de92c7b6e590";"usr_4de5345b3b6a8";"trm_4a3fd79d0ba01";"T16";"tsk_4a57abb949a25";"concept-task";"70";"memory retrieval is measured by the contrast of general memory copy trials in the Digit/Symbol Coding test";;"2011-06-03 11:48:27";"NADA";"cnt_4de929f98367a";"positive";"1"
"ass_4de93a87411b2";"usr_4de5345b3b6a8";"trm_4a3fd79d0a252";"T16";"trm_4c898bbab4fd4";"concept-task";"70";"executive function is measured by the contrast of response time and accuracy trials in the Divided Auditory Attention";;"2011-06-03 12:48:23";"NADA";"cnt_4de93a6779688";"positive";"1"
"ass_4de93aa57938b";"usr_4de5345b3b6a8";"trm_4a3fd79d0a246";"T16";"trm_4c898bbab4fd4";"concept-task";"70";"executive control is measured by the contrast of response time and accuracy trials in the Divided Auditory Attention";;"2011-06-03 12:48:53";"NADA";"cnt_4de93a6779688";"positive";"1"
"ass_4de93ad8b05e3";"usr_4de5345b3b6a8";"trm_4a3fd79d09a10";"T16";"trm_4c898bbab4fd4";"concept-task";"100";"auditory attention is measured by the contrast of response time and accuracy trials in the Divided Auditory Attention";;"2011-06-03 12:49:44";"NADA";"cnt_4de93a6779688";"positive";"1"
"ass_4de93b01e9429";"usr_4de5345b3b6a8";"trm_4a3fd79d09713";"T16";"trm_4c898bbab4fd4";"concept-task";"70";"acoustic phonetic processing is measured by the contrast of response time and accuracy trials in the Divided Auditory Attention";;"2011-06-03 12:50:25";"NADA";"cnt_4de93a6779688";"positive";"1"
"ass_4de93f3fddad8";"usr_4de5345b3b6a8";"trm_4a3fd79d0b0f7";"T16";"tsk_4a57abb949a33";"concept-task";"70";"short term memory is measured by the contrast of verbal recall (people test) trials in the Doors and People Test";;"2011-06-03 13:08:31";"NADA";"cnt_4de93d2864ae9";"positive";"1"
"ass_4de93f3fde34d";"usr_4de5345b3b6a8";"trm_4a3fd79d0b0f7";"T16";"tsk_4a57abb949a33";"concept-task";"70";"short term memory is measured by the contrast of visual recognition (doors test) trials in the Doors and People Test";;"2011-06-03 13:08:31";"NADA";"cnt_4de93ddadf379";"positive";"1"
"ass_4de93f3fde866";"usr_4de5345b3b6a8";"trm_4a3fd79d0b0f7";"T16";"tsk_4a57abb949a33";"concept-task";"70";"short term memory is measured by the contrast of visual recall (shapes test) trials in the Doors and People Test";;"2011-06-03 13:08:31";"NADA";"cnt_4de93e2a13bb5";"positive";"1"
"ass_4de93f3fded1e";"usr_4de5345b3b6a8";"trm_4a3fd79d0b0f7";"T16";"tsk_4a57abb949a33";"concept-task";"70";"short term memory is measured by the contrast of verbal recognition (names test) trials in the Doors and People Test";;"2011-06-03 13:08:31";"NADA";"cnt_4de93e831c09d";"positive";"1"
"ass_4de93f60e8033";"usr_4de5345b3b6a8";"trm_4a3fd79d0a4f9";"T16";"tsk_4a57abb949a33";"concept-task";"70";"iconic memory is measured by the contrast of visual recognition (doors test) trials in the Doors and People Test";;"2011-06-03 13:09:04";"NADA";"cnt_4de93ddadf379";"positive";"1"
"ass_4de93f60e853f";"usr_4de5345b3b6a8";"trm_4a3fd79d0a4f9";"T16";"tsk_4a57abb949a33";"concept-task";"70";"iconic memory is measured by the contrast of visual recall (shapes test) trials in the Doors and People Test";;"2011-06-03 13:09:04";"NADA";"cnt_4de93e2a13bb5";"positive";"1"
"ass_4de9400cba367";"usr_4de5345b3b6a8";"trm_4a3fd79d0b95b";"T16";"tsk_4a57abb949a33";"concept-task";"70";"recall is measured by the contrast of verbal recall (people test) trials in the Doors and People Test";;"2011-06-03 13:11:56";"NADA";"cnt_4de93d2864ae9";"positive";"1"
"ass_4de9400cba911";"usr_4de5345b3b6a8";"trm_4a3fd79d0b95b";"T16";"tsk_4a57abb949a33";"concept-task";"70";"recall is measured by the contrast of visual recognition (doors test) trials in the Doors and People Test";;"2011-06-03 13:11:56";"NADA";"cnt_4de93ddadf379";"positive";"1"
"ass_4de9400cbad4e";"usr_4de5345b3b6a8";"trm_4a3fd79d0b95b";"T16";"tsk_4a57abb949a33";"concept-task";"70";"recall is measured by the contrast of visual recall (shapes test) trials in the Doors and People Test";;"2011-06-03 13:11:56";"NADA";"cnt_4de93e2a13bb5";"positive";"1"
"ass_4de9400cbb19e";"usr_4de5345b3b6a8";"trm_4a3fd79d0b95b";"T16";"tsk_4a57abb949a33";"concept-task";"70";"recall is measured by the contrast of verbal recognition (names test) trials in the Doors and People Test";;"2011-06-03 13:11:56";"NADA";"cnt_4de93e831c09d";"positive";"1"
"ass_4de9562101578";"usr_4de5345b3b6a8";"trm_4a3fd79d0a972";"T16";"trm_4c898be57fcbc";"concept-task";"70";"motor control is measured by the contrast of overall similarity to intended picture trials in the Drawing";;"2011-06-03 14:46:09";"NADA";"cnt_4de948beb7f3c";"positive";"1"
"ass_4de9575666cfe";"usr_4de5345b3b6a8";"trm_4a3fd79d0b4b5";"T16";"trm_4c898be57fcbc";"concept-task";"70";"visual perception is measured by the contrast of overall similarity to intended picture trials in the Drawing";;"2011-06-03 14:51:18";"NADA";"cnt_4de948beb7f3c";"positive";"1"
"ass_4de95f47bf115";"usr_4de5345b3b6a8";"trm_4aae62e4ad209";"T16";"trm_4c898c0786246";"concept-task";"70";"cognitive control is measured by the contrast of amount consumed trials in the Eating/Drinking";;"2011-06-03 15:25:11";"NADA";"cnt_4de95f0aa8476";"positive";"1"
"ass_4de95f9a2f005";"usr_4de5345b3b6a8";"trm_4a3fd79d0b05e";"T16";"trm_4c898c0786246";"concept-task";"100";"self monitoring is measured by the contrast of amount consumed trials in the Eating/Drinking";;"2011-06-03 15:26:34";"NADA";"cnt_4de95f0aa8476";"positive";"1"
"ass_4de9646cd4f59";"usr_4de5345b3b6a8";"trm_4a3fd79d0a972";"T16";"tsk_4a57abb949a41";"concept-task";"70";"motor control is measured by the contrast of sum of strength scores x sum of items per hand trials in the Edinburgh Handedness Inventory";;"2011-06-03 15:47:08";"NADA";"cnt_4de963f853b03";"positive";"1"
"ass_4de966be9ce57";"usr_4de5345b3b6a8";"trm_4a3fd79d0a81b";"T16";"trm_4b749b8829eee";"concept-task";"50";"logical reasoning is measured by the contrast of Segmented blocks trials in the Embedded Figures Test";;"2011-06-03 15:57:02";"NADA";"cnt_4b7c0325a9f17";"positive";"1"
"ass_4de966be9d4ea";"usr_4de5345b3b6a8";"trm_4a3fd79d0a81b";"T16";"trm_4b749b8829eee";"concept-task";"50";"logical reasoning is measured by the contrast of Unsegmented blocks trials in the Embedded Figures Test";;"2011-06-03 15:57:02";"NADA";"cnt_4b7c03351fc78";"positive";"1"
"ass_4de966e2b15d6";"usr_4de5345b3b6a8";"trm_4a3fd79d0b507";"T16";"trm_4b749b8829eee";"concept-task";"70";"visuospatial sketch pad is measured by the contrast of Segmented blocks trials in the Embedded Figures Test";;"2011-06-03 15:57:38";"NADA";"cnt_4b7c0325a9f17";"positive";"1"
"ass_4de966e2b1b0a";"usr_4de5345b3b6a8";"trm_4a3fd79d0b507";"T16";"trm_4b749b8829eee";"concept-task";"70";"visuospatial sketch pad is measured by the contrast of Unsegmented blocks trials in the Embedded Figures Test";;"2011-06-03 15:57:38";"NADA";"cnt_4b7c03351fc78";"positive";"1"
"ass_4de9690a7e6c4";"usr_4de5345b3b6a8";"trm_4a3fd79d09707";"T16";"trm_4c898c33ee5f8";"concept-task";"100";"acoustic encoding is measured by the contrast of # items remembered with encoding task - number remembered without trials in the Encoding Task";;"2011-06-03 16:06:50";"NADA";"cnt_4de968d88e3d3";"positive";"1"
"ass_4de9692468a81";"usr_4de5345b3b6a8";"trm_4a3fd79d09a3d";"T16";"trm_4c898c33ee5f8";"concept-task";"70";"auditory coding is measured by the contrast of # items remembered with encoding task - number remembered without trials in the Encoding Task";;"2011-06-03 16:07:16";"NADA";"cnt_4de968d88e3d3";"positive";"1"
"ass_4de96952caaaf";"usr_4de5345b3b6a8";"trm_4a3fd79d09a49";"T16";"trm_4c898c33ee5f8";"concept-task";"70";"auditory encoding is measured by the contrast of # items remembered with encoding task - number remembered without trials in the Encoding Task";;"2011-06-03 16:08:02";"NADA";"cnt_4de968d88e3d3";"positive";"1"
"ass_4de9696f670f5";"usr_4de5345b3b6a8";"trm_4a3fd79d0a15c";"T16";"trm_4c898c33ee5f8";"concept-task";"70";"effortful processing is measured by the contrast of # items remembered with encoding task - number remembered without trials in the Encoding Task";;"2011-06-03 16:08:31";"NADA";"cnt_4de968d88e3d3";"positive";"1"
"ass_4de969887ecd6";"usr_4de5345b3b6a8";"trm_4a3fd79d0b8e5";"T16";"trm_4c898c33ee5f8";"concept-task";"70";"encoding is measured by the contrast of # items remembered with encoding task - number remembered without trials in the Encoding Task";;"2011-06-03 16:08:56";"NADA";"cnt_4de968d88e3d3";"positive";"1"
"ass_4de969a0cf116";"usr_4de5345b3b6a8";"trm_4a3fd79d0b756";"T16";"trm_4c898c33ee5f8";"concept-task";"70";"grammatical encoding is measured by the contrast of # items remembered with encoding task - number remembered without trials in the Encoding Task";;"2011-06-03 16:09:20";"NADA";"cnt_4de968d88e3d3";"positive";"1"
"ass_4de969b6ec47b";"usr_4de5345b3b6a8";"trm_4a3fd79d0a7d4";"T16";"trm_4c898c33ee5f8";"concept-task";"70";"lexical encoding is measured by the contrast of # items remembered with encoding task - number remembered without trials in the Encoding Task";;"2011-06-03 16:09:42";"NADA";"cnt_4de968d88e3d3";"positive";"1"
"ass_4de969dd297c3";"usr_4de5345b3b6a8";"trm_4a3fd79d0ac87";"T16";"trm_4c898c33ee5f8";"concept-task";"70";"phonological encoding is measured by the contrast of # items remembered with encoding task - number remembered without trials in the Encoding Task";;"2011-06-03 16:10:21";"NADA";"cnt_4de968d88e3d3";"positive";"1"
"ass_4de969f775a05";"usr_4de5345b3b6a8";"trm_4a3fd79d098a6";"T16";"trm_4c898c33ee5f8";"concept-task";"50";"articulatory rehearsal is measured by the contrast of # items remembered with encoding task - number remembered without trials in the Encoding Task";;"2011-06-03 16:10:47";"NADA";"cnt_4de968d88e3d3";"positive";"1"
"ass_4de96a197c452";"usr_4de5345b3b6a8";"trm_4a3fd79d0b8d9";"T16";"trm_4c898c33ee5f8";"concept-task";"70";"elaborative rehearsal is measured by the contrast of # items remembered with encoding task - number remembered without trials in the Encoding Task";;"2011-06-03 16:11:21";"NADA";"cnt_4de968d88e3d3";"positive";"1"
"ass_4de96cf2a501c";"usr_4de5345b3b6a8";"trm_4a3fd79d0a1f4";"T16";"trm_4c898c8bf1b4f";"concept-task";"70";"episodic memory is measured by the contrast of number of correct identifications trials in the Episodic Recall";;"2011-06-03 16:23:30";"NADA";"cnt_4de96cd8c9aad";"positive";"1"
"ass_4de96d0f10c3e";"usr_4de5345b3b6a8";"trm_4a3fd79d09b1c";"T16";"trm_4c898c8bf1b4f";"concept-task";"70";"autobiographical recall is measured by the contrast of number of correct identifications trials in the Episodic Recall";;"2011-06-03 16:23:59";"NADA";"cnt_4de96cd8c9aad";"positive";"1"
"ass_4ded00e949c32";"usr_4de5345b3b6a8";"trm_4a3fd79d0a613";"T16";"tsk_4a57abb949a4f";"concept-task";"70";"inhibition is measured by the contrast of incongruent response time - congruent response time trials in the Eriksen flanker task";;"2011-06-06 09:31:37";"NADA";"cnt_4decff6567821";"positive";"1"
"ass_4ded0135d4c00";"usr_4de5345b3b6a8";"trm_4a3fd79d0a252";"T16";"tsk_4a57abb949a4f";"concept-task";"50";"executive function is measured by the contrast of incongruent response time - congruent response time trials in the Eriksen flanker task";;"2011-06-06 09:32:53";"NADA";"cnt_4decff6567821";"positive";"1"
"ass_4ded053c42910";"usr_4de5345b3b6a8";"trm_4a3fd79d0ab65";"T16";"tsk_4a57abb949a5d";"concept-task";"70";"pattern recognition is measured by the contrast of average number of trials per pattern change trials in the Extradimensional shift task";;"2011-06-06 09:50:04";"NADA";"cnt_4ded050f2e7f1";"positive";"1"
"ass_4ded069e0b4ee";"usr_4de5345b3b6a8";"trm_4a3fd79d0b5fb";"T16";"tsk_4a57abb949a5d";"concept-task";"70";"attention shifting is measured by the contrast of average number of trials per pattern change trials in the Extradimensional shift task";;"2011-06-06 09:55:58";"NADA";"cnt_4ded050f2e7f1";"positive";"1"
"ass_4ded1079a441a";"usr_4de5345b3b6a8";"tsk_4a57abb949a6a";"T10";"tsk_4a57abb949df1";"task-task";"100";"face n-back task is related to spatial n-back task";;"2011-06-06 10:38:01";"related";;"positive";"1"
"ass_4ded108706c48";"usr_4de5345b3b6a8";"tsk_4a57abb949a6a";"T10";"tsk_4a57abb949b1c";"task-task";"100";"face n-back task is related to letter n-back task";;"2011-06-06 10:38:15";"related";;"positive";"1"
"ass_4ded1316dfba2";"usr_4de5345b3b6a8";"trm_4a3fd79d0b65a";"T16";"tsk_4a57abb949a6a";"concept-task";"100";"emotion perception is measured by the contrast of emotion detection trials in the face n-back task";;"2011-06-06 10:49:10";"NADA";"cnt_4ded127195273";"positive";"1"
"ass_4ded1330f152c";"usr_4de5345b3b6a8";"trm_4a3fd79d0a30c";"T16";"tsk_4a57abb949a6a";"concept-task";"100";"face recognition is measured by the contrast of identity detection trials in the face n-back task";;"2011-06-06 10:49:36";"NADA";"cnt_4ded129f8c996";"positive";"1"
"ass_4ded134b1aa7a";"usr_4de5345b3b6a8";"trm_4a3fd79d0a300";"T16";"tsk_4a57abb949a6a";"concept-task";"100";"face perception is measured by the contrast of identity detection trials in the face n-back task";;"2011-06-06 10:50:03";"NADA";"cnt_4ded129f8c996";"positive";"1"
"ass_4ded138e7e6f0";"usr_4de5345b3b6a8";"trm_4a3fd79d0b08f";"T16";"tsk_4a57abb949a6a";"concept-task";"100";"semantic working memory is measured by the contrast of emotion detection trials in the face n-back task";;"2011-06-06 10:51:10";"NADA";"cnt_4ded127195273";"positive";"1"
"ass_4ded13b7b6c64";"usr_4de5345b3b6a8";"trm_4a3fd79d0b4d8";"T16";"tsk_4a57abb949a6a";"concept-task";"100";"visual working memory is measured by the contrast of emotion detection trials in the face n-back task";;"2011-06-06 10:51:51";"NADA";"cnt_4ded127195273";"positive";"1"
"ass_4ded13b7b71c3";"usr_4de5345b3b6a8";"trm_4a3fd79d0b4d8";"T16";"tsk_4a57abb949a6a";"concept-task";"100";"visual working memory is measured by the contrast of identity detection trials in the face n-back task";;"2011-06-06 10:51:51";"NADA";"cnt_4ded129f8c996";"positive";"1"
"ass_4ded13e2bdafe";"usr_4de5345b3b6a8";"trm_4a3fd79d0b5a7";"T16";"tsk_4a57abb949a6a";"concept-task";"100";"working memory is measured by the contrast of emotion detection trials in the face n-back task";;"2011-06-06 10:52:34";"NADA";"cnt_4ded127195273";"positive";"1"
"ass_4ded13e2be171";"usr_4de5345b3b6a8";"trm_4a3fd79d0b5a7";"T16";"tsk_4a57abb949a6a";"concept-task";"100";"working memory is measured by the contrast of identity detection trials in the face n-back task";;"2011-06-06 10:52:34";"NADA";"cnt_4ded129f8c996";"positive";"1"
"ass_4ded13fa08738";"usr_4de5345b3b6a8";"trm_4a3fd79d0ba6c";"T16";"tsk_4a57abb949a6a";"concept-task";"100";"working memory retrieval is measured by the contrast of emotion detection trials in the face n-back task";;"2011-06-06 10:52:58";"NADA";"cnt_4ded127195273";"positive";"1"
"ass_4ded13fa08d3b";"usr_4de5345b3b6a8";"trm_4a3fd79d0ba6c";"T16";"tsk_4a57abb949a6a";"concept-task";"100";"working memory retrieval is measured by the contrast of identity detection trials in the face n-back task";;"2011-06-06 10:52:58";"NADA";"cnt_4ded129f8c996";"positive";"1"
"ass_4ded2ac34c806";"usr_4de5345b3b6a8";"trm_4a3fd79d0a972";"T16";"trm_4c898f079d05e";"concept-task";"100";"motor control is measured by the contrast of % rhythm maintainance trials in the Finger Tapping Task";;"2011-06-06 12:30:11";"NADA";"cnt_4ded2a911252c";"positive";"1"
"ass_4ded2ac34d85e";"usr_4de5345b3b6a8";"trm_4a3fd79d0a972";"T16";"trm_4c898f079d05e";"concept-task";"100";"motor control is measured by the contrast of tap speed trials in the Finger Tapping Task";;"2011-06-06 12:30:11";"NADA";"cnt_4ded2aa1ea79d";"positive";"1"
"ass_4ded2ae2449cd";"usr_4de5345b3b6a8";"trm_4a3fd79d0afc3";"T16";"trm_4c898f079d05e";"concept-task";"100";"rhythm is measured by the contrast of % rhythm maintainance trials in the Finger Tapping Task";;"2011-06-06 12:30:42";"NADA";"cnt_4ded2a911252c";"positive";"1"
"ass_4ded2b4470364";"usr_4de5345b3b6a8";"trm_4a3fd79d0a9a1";"T16";"trm_4c898f079d05e";"concept-task";"100";"motor planning is measured by the contrast of % rhythm maintainance trials in the Finger Tapping Task";;"2011-06-06 12:32:20";"NADA";"cnt_4ded2a911252c";"positive";"1"
"ass_4ded2b44708af";"usr_4de5345b3b6a8";"trm_4a3fd79d0a9a1";"T16";"trm_4c898f079d05e";"concept-task";"100";"motor planning is measured by the contrast of tap speed trials in the Finger Tapping Task";;"2011-06-06 12:32:20";"NADA";"cnt_4ded2aa1ea79d";"positive";"1"
"ass_4ded3abaefa7f";"usr_4de5345b3b6a8";"trm_4a3fd79d0b5e3";"T16";"trm_4c898f72228f3";"concept-task";"70";"attention span is measured by the contrast of fixation time below maximum degree of eye movement trials in the Fixation Task";;"2011-06-06 13:38:18";"NADA";"cnt_4ded3a95a6098";"positive";"1"
"ass_4ded3b437543b";"usr_4de5345b3b6a8";"trm_4a3fd79d0a3d2";"T16";"trm_4c898f72228f3";"concept-task";"100";"gaze is measured by the contrast of degree of eye movement trials in the Fixation Task";;"2011-06-06 13:40:35";"NADA";"cnt_4ded3b16cdb74";"positive";"1"
"ass_4ded3b72c299c";"usr_4de5345b3b6a8";"trm_4a3fd79d0b46f";"T16";"trm_4c898f72228f3";"concept-task";"70";"visual attention is measured by the contrast of degree of eye movement trials in the Fixation Task";;"2011-06-06 13:41:22";"NADA";"cnt_4ded3b16cdb74";"positive";"1"
"ass_4ded3b9079c4e";"usr_4de5345b3b6a8";"trm_4a3fd79d0b5ef";"T16";"trm_4c898f72228f3";"concept-task";"100";"attentional focusing is measured by the contrast of fixation time below maximum degree of eye movement trials in the Fixation Task";;"2011-06-06 13:41:52";"NADA";"cnt_4ded3a95a6098";"positive";"1"
"ass_4ded3bc65aaa0";"usr_4de5345b3b6a8";"trm_4a3fd79d0a38d";"T16";"trm_4c898f72228f3";"concept-task";"70";"focused attention is measured by the contrast of fixation time below maximum degree of eye movement trials in the Fixation Task";;"2011-06-06 13:42:46";"NADA";"cnt_4ded3a95a6098";"positive";"1"
"ass_4ded48374964b";"usr_4de5345b3b6a8";"trm_4a3fd79d0ac9e";"T16";"tsk_4a57abb949a85";"concept-task";"100";"phonological working memory is measured by the contrast of length of longest correct sequence trials in the Forward digit span task";;"2011-06-06 14:35:51";"NADA";"cnt_4ded480d5aec0";"positive";"1"
"ass_4ded484a4508d";"usr_4de5345b3b6a8";"trm_4a3fd79d0b5a7";"T16";"tsk_4a57abb949a85";"concept-task";"100";"working memory is measured by the contrast of length of longest correct sequence trials in the Forward digit span task";;"2011-06-06 14:36:10";"NADA";"cnt_4ded480d5aec0";"positive";"1"
"ass_4ded4bf74f244";"usr_4de5345b3b6a8";"trm_4a3fd79d09cae";"T16";"trm_4c898fc6722f4";"concept-task";"100";"chunking is measured by the contrast of category list trials in the Free Word List Recall";;"2011-06-06 14:51:51";"NADA";"cnt_4ded4b7c49083";"positive";"1"
"ass_4ded4c1a410dc";"usr_4de5345b3b6a8";"trm_4a3fd79d0a1ae";"T16";"trm_4c898fc6722f4";"concept-task";"100";"emotional memory is measured by the contrast of emotion manipulation trials in the Free Word List Recall";;"2011-06-06 14:52:26";"NADA";"cnt_4ded4b345f82a";"positive";"1"
"ass_4ded4c6851a62";"usr_4de5345b3b6a8";"trm_4a3fd79d0b5a7";"T16";"trm_4c898fc6722f4";"concept-task";"100";"working memory is measured by the contrast of emotion manipulation trials in the Free Word List Recall";;"2011-06-06 14:53:44";"NADA";"cnt_4ded4b345f82a";"positive";"1"
"ass_4ded4c68520b4";"usr_4de5345b3b6a8";"trm_4a3fd79d0b5a7";"T16";"trm_4c898fc6722f4";"concept-task";"100";"working memory is measured by the contrast of category list trials in the Free Word List Recall";;"2011-06-06 14:53:44";"NADA";"cnt_4ded4b7c49083";"positive";"1"
"ass_4ded4e2a70d36";"usr_4de5345b3b6a8";"trm_4b7c270940f9d";"T16";"tsk_4a57abb949a93";"concept-task";"100";"behavioral inhibition (cognitive) is measured by the contrast of stop minus go trials in the Go/no-go task";;"2011-06-06 15:01:14";"NADA";"cnt_4ded4dc5b5118";"positive";"1"
"ass_4ded4e6a4904f";"usr_4de5345b3b6a8";"trm_4a3fd79d0a613";"T16";"tsk_4a57abb949a93";"concept-task";"100";"inhibition is measured by the contrast of Stop trial trials in the Go/no-go task";;"2011-06-06 15:02:18";"NADA";"cnt_4b4a2f46e2faa";"positive";"1"
"ass_4ded51cf6b6bc";"usr_4de5345b3b6a8";"trm_4a3fd79d0a9a1";"T16";"trm_4c898ff0bea97";"concept-task";"100";"motor planning is measured by the contrast of response time trials in the Grasping Task";;"2011-06-06 15:16:47";"NADA";"cnt_4ded518b33a0b";"positive";"1"
"ass_4ded51e5e01de";"usr_4de5345b3b6a8";"trm_4a3fd79d0a972";"T16";"trm_4c898ff0bea97";"concept-task";"100";"motor control is measured by the contrast of kinematics trials in the Grasping Task";;"2011-06-06 15:17:09";"NADA";"cnt_4ded51930eba6";"positive";"1"
"ass_4ded57d0b8950";"usr_4de5345b3b6a8";"trm_4a3fd79d0aeb6";"T16";"tsk_4a57abb949aa1";"concept-task";"100";"reading is measured by the contrast of sum of rate, accuracy, fluency, and comprehension scaled scores trials in the Gray Oral Reading Test - 4";;"2011-06-06 15:42:24";"NADA";"cnt_4ded542c8c4f8";"positive";"1"
"ass_4ded581e82a27";"usr_4de5345b3b6a8";"trm_4a3fd79d09bbf";"T16";"tsk_4a57abb949aa1";"concept-task";"70";"binocular vision is measured by the contrast of sum of rate, accuracy, fluency, and comprehension scaled scores trials in the Gray Oral Reading Test - 4";;"2011-06-06 15:43:42";"NADA";"cnt_4ded542c8c4f8";"positive";"1"
"ass_4ded585b37332";"usr_4de5345b3b6a8";"trm_4a3fd79d0a775";"T16";"tsk_4a57abb949aa1";"concept-task";"100";"language comprehension is measured by the contrast of sum of rate, accuracy, fluency, and comprehension scaled scores trials in the Gray Oral Reading Test - 4";;"2011-06-06 15:44:43";"NADA";"cnt_4ded542c8c4f8";"positive";"1"
"ass_4ded610c108a3";"usr_4de5345b3b6a8";"trm_4b82c75498408";"T16";"tsk_4a57abb949aae";"concept-task";"70";"Central Coherence is measured by the contrast of accuracy trials in the Hooper Visual Organization Test";;"2011-06-06 16:21:48";"NADA";"cnt_4ded60eb3a50f";"positive";"1"
"ass_4ded612b3c9f7";"usr_4de5345b3b6a8";"trm_4a3fd79d0aaa4";"T16";"tsk_4a57abb949aae";"concept-task";"100";"object perception is measured by the contrast of accuracy trials in the Hooper Visual Organization Test";;"2011-06-06 16:22:19";"NADA";"cnt_4ded60eb3a50f";"positive";"1"
"ass_4ded61b8250fb";"usr_4de5345b3b6a8";"trm_4a3fd79d0b4a9";"T16";"tsk_4a57abb949aae";"concept-task";"100";"visual object recognition is measured by the contrast of accuracy trials in the Hooper Visual Organization Test";;"2011-06-06 16:24:40";"NADA";"cnt_4ded60eb3a50f";"positive";"1"
"ass_4ded620d4ee98";"usr_4de5345b3b6a8";"trm_4a3fd79d0b9ad";"T16";"tsk_4a57abb949aae";"concept-task";"100";"feature detection is measured by the contrast of accuracy trials in the Hooper Visual Organization Test";;"2011-06-06 16:26:05";"NADA";"cnt_4ded60eb3a50f";"positive";"1"
"ass_4dee511312e6f";"usr_4de5345b3b6a8";"trm_4a3fd79d09d4d";"T16";"trm_4c899005b11d5";"concept-task";"100";"cognitive effort is measured by the contrast of real task effort minus imagined task effort trials in the Imagined Movement";;"2011-06-07 09:25:55";"NADA";"cnt_4dee50e19a0a5";"positive";"1"
"ass_4dee514c07ea0";"usr_4de5345b3b6a8";"trm_4a3fd79d0a504";"T16";"trm_4c899005b11d5";"concept-task";"70";"imageability is measured by the contrast of real task time minus imagined task time trials in the Imagined Movement";;"2011-06-07 09:26:52";"NADA";"cnt_4dee50b24d8c4";"positive";"1"
"ass_4dee518a6a2a5";"usr_4de5345b3b6a8";"trm_4a3fd79d0a9a1";"T16";"trm_4c899005b11d5";"concept-task";"100";"motor planning is measured by the contrast of real task areas of activation minus imagined task areas of activation trials in the Imagined Movement";;"2011-06-07 09:27:54";"NADA";"cnt_4dee50d11696f";"positive";"1"
"ass_4dee5954ebb4d";"usr_4de5345b3b6a8";"trm_4a3fd79d09d35";"T16";"trm_4c89903149aeb";"concept-task";"70";"cognitive development is measured by the contrast of physical representation of imagined object trials in the Imagined Objects/Scenes";;"2011-06-07 10:01:08";"NADA";"cnt_4dee593ebfcc7";"positive";"1"
"ass_4dee59f209bb9";"usr_4de5345b3b6a8";"trm_4a3fd79d0a908";"T16";"trm_4c89903149aeb";"concept-task";"100";"mental representation is measured by the contrast of real visual areas of activation minus imagined task areas of activation trials in the Imagined Objects/Scenes";;"2011-06-07 10:03:46";"NADA";"cnt_4dee551d3a46b";"positive";"1"
"ass_4dee5efe0107e";"usr_4de5345b3b6a8";"tsk_4a57abb949abc";"T15";"trm_4da63357e4999";"task-task";"100";"immediate recall test is descended from Wechsler Memory Scale (revised)";;"2011-06-07 10:25:18";"NADA";;"positive";"1"
"ass_4dee6281942ca";"usr_4de5345b3b6a8";"trm_4a3fd79d0b5a7";"T16";"tsk_4a57abb949abc";"concept-task";"100";"working memory is measured by the contrast of number or percentage of words remembered trials in the immediate recall test";;"2011-06-07 10:40:17";"NADA";"cnt_4dee5f41244cc";"positive";"1"
"ass_4dee62c2bb5c4";"usr_4de5345b3b6a8";"trm_4a3fd79d0ba6c";"T16";"tsk_4a57abb949abc";"concept-task";"100";"working memory retrieval is measured by the contrast of number or percentage of words remembered trials in the immediate recall test";;"2011-06-07 10:41:22";"NADA";"cnt_4dee5f41244cc";"positive";"1"
"ass_4dee62edec5cc";"usr_4de5345b3b6a8";"trm_4a3fd79d0a04f";"T16";"tsk_4a57abb949abc";"concept-task";"100";"declarative memory is measured by the contrast of number or percentage of words remembered trials in the immediate recall test";;"2011-06-07 10:42:05";"NADA";"cnt_4dee5f41244cc";"positive";"1"
"ass_4dee803594a56";"usr_4de5345b3b6a8";"trm_4a3fd79d0a590";"T16";"trm_4d8a48e403c78";"concept-task";"100";"inductive reasoning is measured by the contrast of accuracy of participant minus average accuracy of controls trials in the Inductive reasoning aptitude";;"2011-06-07 12:47:01";"NADA";"cnt_4dee7fcd869e8";"positive";"1"
"ass_4deeb2a91204a";"usr_4de5345b3b6a8";"trm_4a3fd79d0b65a";"T16";"tsk_4a57abb949aca";"concept-task";"100";"emotion perception is measured by the contrast of arousal in response to picture minus baseline arousal trials in the International Affective Picture System";;"2011-06-07 16:22:17";"NADA";"cnt_4deeb0951bd72";"positive";"1"
"ass_4deebb2c3c83c";"usr_4de5345b3b6a8";"tsk_4a57abb949ad7";"T10";"tsk_4a57abb949a5d";"task-task";"100";"Intradimensional shift task is related to Extradimensional shift task";;"2011-06-07 16:58:36";"related";;"positive";"1"
"ass_4df1084678396";"usr_4de5345b3b6a8";"tsk_4a57abb949ad7";"T10";"tsk_4a57abb949f21";"task-task";"70";"Intradimensional shift task is a broader synonym of Wisconsin Card Sorting test";;"2011-06-09 10:52:06";"broader";;"positive";"1"
"ass_4df108b12654d";"usr_4de5345b3b6a8";"trm_4a3fd79d0ab65";"T16";"tsk_4a57abb949ad7";"concept-task";"100";"pattern recognition is measured by the contrast of accuracy of subject minus average accuracy of controls trials in the Intradimensional shift task";;"2011-06-09 10:53:53";"NADA";"cnt_4deff762a9fb7";"positive";"1"
"ass_4df108d9357a1";"usr_4de5345b3b6a8";"trm_4a3fd79d0b5fb";"T16";"tsk_4a57abb949a5d";"concept-task";"100";"attention shifting is measured by the contrast of accuracy of subject minus average accuracy of controls trials in the Extradimensional shift task";;"2011-06-09 10:54:33";"NADA";"cnt_4df108c45e041";"positive";"1"
"ass_4df108e13b79f";"usr_4de5345b3b6a8";"trm_4a3fd79d0b5fb";"T16";"tsk_4a57abb949ad7";"concept-task";"100";"attention shifting is measured by the contrast of accuracy of subject minus average accuracy of controls trials in the Intradimensional shift task";;"2011-06-09 10:54:41";"NADA";"cnt_4deff762a9fb7";"positive";"1"
"ass_4df108f02f95f";"usr_4de5345b3b6a8";"trm_4a3fd79d0ab65";"T16";"tsk_4a57abb949a5d";"concept-task";"100";"pattern recognition is measured by the contrast of accuracy of subject minus average accuracy of controls trials in the Extradimensional shift task";;"2011-06-09 10:54:56";"NADA";"cnt_4df108c45e041";"positive";"1"
"ass_4df10d629c69a";"usr_4de5345b3b6a8";"trm_4a3fd79d0b64e";"T16";"tsk_4a57abb949ae5";"concept-task";"70";"risk seeking is measured by the contrast of accuracy of subject minus average accuracy of controls trials in the Iowa Gambling Task";;"2011-06-09 11:13:54";"NADA";"cnt_4df10d2fb170f";"positive";"1"
"ass_4df10dc191ab2";"usr_4de5345b3b6a8";"tsk_4a57abb949ae5";"T10";"trm_4d55a2bbcfdff";"task-task";"70";"Iowa Gambling Task is a narrower synonym of Choice task between risky and non-risky options";;"2011-06-09 11:15:29";"narrower";;"positive";"1"
"ass_4df1152fd997f";"usr_4de5345b3b6a8";"trm_4a3fd79d09d93";"T16";"tsk_4a57abb949af3";"concept-task";"100";"color perception is measured by the contrast of number of plates read correctly by controls with normal color vision minus number of plates read correctly by subject trials in the Ishihara plates for color blindness";;"2011-06-09 11:47:11";"NADA";"cnt_4df10f9cbd86c";"positive";"1"
"ass_4df11923b70fd";"usr_4de5345b3b6a8";"trm_4a3fd79d0a972";"T16";"trm_4c8990480ad0f";"concept-task";"100";"motor control is measured by the contrast of MVC minus baseline trials in the Isometric Force";;"2011-06-09 12:04:03";"NADA";"cnt_4df118fd720dd";"positive";"1"
"ass_4df119630aec8";"usr_4de5345b3b6a8";"trm_4d7fc7c13b3c0";"T16";"trm_4c8990480ad0f";"concept-task";"50";"Self-Regulation is measured by the contrast of MVC minus baseline trials in the Isometric Force";;"2011-06-09 12:05:07";"NADA";"cnt_4df118fd720dd";"positive";"1"
"ass_4df1352169f6f";"usr_4de5345b3b6a8";"trm_4a3fd79d0b1a6";"T16";"tsk_4a57abb949b00";"concept-task";"100";"spatial ability is measured by the contrast of accuracy of participant minus average accuracy of controls trials in the Kanizsa figures";;"2011-06-09 14:03:29";"NADA";"cnt_4df133b48842d";"positive";"1"
"ass_4df135803e7f0";"usr_4de5345b3b6a8";"trm_4a3fd79d0ab88";"T16";"tsk_4a57abb949b00";"concept-task";"100";"perceptual binding is measured by the contrast of reaction time to figures minus reaction time to Kanizsa figures trials in the Kanizsa figures";;"2011-06-09 14:05:04";"NADA";"cnt_4df133a20d8da";"positive";"1"
"ass_4df135b8494c2";"usr_4de5345b3b6a8";"trm_4a3fd79d0b9c5";"T16";"tsk_4a57abb949b00";"concept-task";"100";"figure ground relations is measured by the contrast of reaction time to figures minus reaction time to Kanizsa figures trials in the Kanizsa figures";;"2011-06-09 14:06:00";"NADA";"cnt_4df133a20d8da";"positive";"1"
"ass_4df135b849a4f";"usr_4de5345b3b6a8";"trm_4a3fd79d0b9c5";"T16";"tsk_4a57abb949b00";"concept-task";"100";"figure ground relations is measured by the contrast of accuracy of participant minus average accuracy of controls trials in the Kanizsa figures";;"2011-06-09 14:06:00";"NADA";"cnt_4df133b48842d";"positive";"1"
"ass_4df13ada61bc3";"usr_4de5345b3b6a8";"trm_4a3fd79d0b5a7";"T16";"trm_4c40d4054f38b";"concept-task";"100";"working memory is measured by the contrast of accuracy of subject minus average accuracy of controls trials in the keep-track task";;"2011-06-09 14:27:54";"NADA";"cnt_4df13aaa3f2be";"positive";"1"
"ass_4df13aef0b9cb";"usr_4de5345b3b6a8";"trm_4c3e05903e4bb";"T16";"trm_4c40d4054f38b";"concept-task";"100";"updating is measured by the contrast of accuracy of subject minus average accuracy of controls trials in the keep-track task";;"2011-06-09 14:28:15";"NADA";"cnt_4df13aaa3f2be";"positive";"1"
"ass_4df13b091958a";"usr_4de5345b3b6a8";"trm_4a3fd79d09d64";"T16";"trm_4c40d4054f38b";"concept-task";"100";"cognitive load is measured by the contrast of accuracy of subject minus average accuracy of controls trials in the keep-track task";;"2011-06-09 14:28:41";"NADA";"cnt_4df13aaa3f2be";"positive";"1"
"ass_4df13e0ba3a91";"usr_4de5345b3b6a8";"trm_4a3fd79d0b802";"T16";"tsk_4a57abb949b0e";"concept-task";"100";"language processing is measured by the contrast of standard deviation from the mean population score in the language of the participant trials in the letter fluency test ";;"2011-06-09 14:41:31";"NADA";"cnt_4df13d6084e80";"positive";"1"
"ass_4df13eb51d708";"usr_4de5345b3b6a8";"trm_4a3fd79d0a833";"T16";"tsk_4a57abb949b0e";"concept-task";"100";"long term memory is measured by the contrast of standard deviation from the mean population score in the language of the participant trials in the letter fluency test ";;"2011-06-09 14:44:21";"NADA";"cnt_4df13d6084e80";"positive";"1"
"ass_4df145d3a9f6a";"usr_4de5345b3b6a8";"trm_4a3fd79d0a781";"T16";"tsk_4a57abb949b2b";"concept-task";"100";"language learning is measured by the contrast of accuracy of participant minus average accuracy of age-matched controls trials in the Letter naming task";;"2011-06-09 15:14:43";"NADA";"cnt_4df1456d05cab";"positive";"1"
"ass_4df1462975397";"usr_4de5345b3b6a8";"trm_4a3fd79d09d35";"T16";"tsk_4a57abb949b2b";"concept-task";"100";"cognitive development is measured by the contrast of accuracy of participant minus average accuracy of age-matched controls trials in the Letter naming task";;"2011-06-09 15:16:09";"NADA";"cnt_4df1456d05cab";"positive";"1"
"ass_4df147798cc89";"usr_4de5345b3b6a8";"trm_4c3e0a9576c3b";"T15";"tsk_4a57abb949f12";"task-task";"100";"letter number sequencing is descended from Wechsler Adult Intelligence Scale - Revised";;"2011-06-09 15:21:45";"NADA";;"positive";"1"
"ass_4df1591904aa3";"usr_4de5345b3b6a8";"trm_4a3fd79d09b04";"T16";"trm_4c3e0a9576c3b";"concept-task";"100";"auditory working memory is measured by the contrast of longest correct sequence of controls minus longest correct sequence of subject trials in the letter number sequencing";;"2011-06-09 16:36:57";"NADA";"cnt_4df1585e55f60";"positive";"1"
"ass_4df1595f0e7be";"usr_4de5345b3b6a8";"trm_4a3fd79d0a116";"T16";"trm_4c3e0a9576c3b";"concept-task";"100";"divided attention is measured by the contrast of longest correct sequence of controls minus longest correct sequence of subject trials in the letter number sequencing";;"2011-06-09 16:38:07";"NADA";"cnt_4df1585e55f60";"positive";"1"
"ass_4df247eb0d903";"usr_4de5345b3b6a8";"trm_4a3fd79d0b80f";"T16";"tsk_4a57abb949b38";"concept-task";"100";"lexical access is measured by the contrast of Words - Pseudowords trials in the Lexical decision task";;"2011-06-10 09:35:55";"NADA";"cnt_4be6ec4cb064c";"positive";"1"
"ass_4df248785e1b6";"usr_4de5345b3b6a8";"trm_4a3fd79d0ba01";"T16";"tsk_4a57abb949b38";"concept-task";"100";"memory retrieval is measured by the contrast of Words - Pseudowords trials in the Lexical decision task";;"2011-06-10 09:38:16";"NADA";"cnt_4be6ec4cb064c";"positive";"1"
"ass_4df248785e832";"usr_4de5345b3b6a8";"trm_4a3fd79d0ba01";"T16";"tsk_4a57abb949b38";"concept-task";"100";"memory retrieval is measured by the contrast of Words - Consonant letter strings trials in the Lexical decision task";;"2011-06-10 09:38:16";"NADA";"cnt_4be6ec6e29f57";"positive";"1"
"ass_4df24fb6df66e";"usr_4de5345b3b6a8";"trm_4a3fd79d0971e";"T16";"trm_4c40d1d16071e";"concept-task";"100";"acoustic processing is measured by the contrast of size of subject sentence set minus average size of sentence set of control subjects trials in the listening span task";;"2011-06-10 10:09:10";"NADA";"cnt_4df24f7376278";"positive";"1"
"ass_4df24fea52270";"usr_4de5345b3b6a8";"trm_4a3fd79d09b04";"T16";"trm_4c40d1d16071e";"concept-task";"100";"auditory working memory is measured by the contrast of size of subject sentence set minus average size of sentence set of control subjects trials in the listening span task";;"2011-06-10 10:10:02";"NADA";"cnt_4df24f7376278";"positive";"1"
"ass_4df2632bd7327";"usr_4de5345b3b6a8";"trm_4a3fd79d09eb6";"T16";"tsk_4a57abb949b54";"concept-task";"100";"conventionality is measured by the contrast of subject score minus average normal score trials in the Maudsley Obsessive Compulsive Inventory";;"2011-06-10 11:32:11";"NADA";"cnt_4df25f35f17e3";"positive";"1"
"ass_4df26368d9c20";"usr_4de5345b3b6a8";"trm_4a3fd79d0b05e";"T16";"tsk_4a57abb949b54";"concept-task";"100";"self monitoring is measured by the contrast of subject score minus average normal score trials in the Maudsley Obsessive Compulsive Inventory";;"2011-06-10 11:33:12";"NADA";"cnt_4df25f35f17e3";"positive";"1"
"ass_4df263b3a26cb";"usr_4de5345b3b6a8";"trm_4c8990810541d";"T10";"trm_4af89b3a925ca";"task-task";"100";"Mental Rotation Task is a broader synonym of Vandenberg & Kuse Tasks";;"2011-06-10 11:34:27";"broader";;"positive";"1"
"ass_4df26638b3d94";"usr_4de5345b3b6a8";"trm_4a3fd79d0a914";"T16";"trm_4c8990810541d";"concept-task";"100";"mental rotation is measured by the contrast of areas of activation during task minus baseline trials in the Mental Rotation Task";;"2011-06-10 11:45:12";"NADA";"cnt_4df265ff04368";"positive";"1"
"ass_4df2667b0a3d6";"usr_4de5345b3b6a8";"trm_4a3fd79d0b1a6";"T16";"trm_4c8990810541d";"concept-task";"100";"spatial ability is measured by the contrast of average male score minus average female score trials in the Mental Rotation Task";;"2011-06-10 11:46:19";"NADA";"cnt_4df26493887a0";"positive";"1"
"ass_4df2667b0a93c";"usr_4de5345b3b6a8";"trm_4a3fd79d0b1a6";"T16";"trm_4c8990810541d";"concept-task";"100";"spatial ability is measured by the contrast of areas of activation during task minus baseline trials in the Mental Rotation Task";;"2011-06-10 11:46:19";"NADA";"cnt_4df265ff04368";"positive";"1"
"ass_4df26984a9771";"usr_4de5345b3b6a8";"trm_4a3fd79d0b5ef";"T16";"trm_4b9568b2865c2";"concept-task";"100";"attentional focusing is measured by the contrast of subject score minus population-matched average score trials in the MicroCog";;"2011-06-10 11:59:16";"NADA";"cnt_4df26816e1c98";"positive";"1"
"ass_4df269a8b534d";"usr_4de5345b3b6a8";"trm_4a3fd79d0b1a6";"T16";"trm_4b9568b2865c2";"concept-task";"100";"spatial ability is measured by the contrast of subject score minus population-matched average score trials in the MicroCog";;"2011-06-10 11:59:52";"NADA";"cnt_4df26816e1c98";"positive";"1"
"ass_4df269d01b826";"usr_4de5345b3b6a8";"trm_4a3fd79d0aec1";"T16";"trm_4d8a48e403c78";"concept-task";"100";"reasoning is measured by the contrast of accuracy of participant minus average accuracy of controls trials in the Inductive reasoning aptitude";;"2011-06-10 12:00:32";"NADA";"cnt_4dee7fcd869e8";"positive";"1"
"ass_4df269d9cf70d";"usr_4de5345b3b6a8";"trm_4a3fd79d0aec1";"T16";"trm_4b9568b2865c2";"concept-task";"100";"reasoning is measured by the contrast of subject score minus population-matched average score trials in the MicroCog";;"2011-06-10 12:00:41";"NADA";"cnt_4df26816e1c98";"positive";"1"
"ass_4df26a0a3af08";"usr_4de5345b3b6a8";"trm_4a3fd79d0adf4";"T16";"trm_4b9568b2865c2";"concept-task";"100";"processing capacity is measured by the contrast of subject score minus population-matched average score trials in the MicroCog";;"2011-06-10 12:01:30";"NADA";"cnt_4df26816e1c98";"positive";"1"
"ass_4df26a281e0c4";"usr_4de5345b3b6a8";"trm_4aae62e4ad209";"T16";"trm_4b9568b2865c2";"concept-task";"100";"cognitive control is measured by the contrast of subject score minus population-matched average score trials in the MicroCog";;"2011-06-10 12:02:00";"NADA";"cnt_4df26816e1c98";"positive";"1"
"ass_4df26ae14be2d";"usr_4de5345b3b6a8";"tsk_4a57abb949df1";"T15";"tsk_4a57abb949bcd";"task-task";"100";"spatial n-back task is descended from n-back task";;"2011-06-10 12:05:05";"NADA";;"positive";"1"
"ass_4df28cadddca0";"usr_4de5345b3b6a8";"trm_4aae62e4ad209";"T16";"tsk_4a57abb949bb1";"concept-task";"100";"cognitive control is measured by the contrast of participant score minus average score trials in the Mini Mental State Examination";;"2011-06-10 14:29:17";"NADA";"cnt_4df28c7e2f855";"positive";"1"
"ass_4df291ba34274";"usr_4de5345b3b6a8";"trm_4a3fd79d0addc";"T16";"tsk_4a57abb949bbf";"concept-task";"100";"procedural memory is measured by the contrast of accuracy of participant minus average accuracy of controls trials in the motor sequencing task";;"2011-06-10 14:50:50";"NADA";"cnt_4df2917218780";"positive";"1"
"ass_4df291ba348a5";"usr_4de5345b3b6a8";"trm_4a3fd79d0addc";"T16";"tsk_4a57abb949bbf";"concept-task";"100";"procedural memory is measured by the contrast of longest correct sequence of controls minus longest correct sequence of subject trials in the motor sequencing task";;"2011-06-10 14:50:50";"NADA";"cnt_4df2918824fb9";"positive";"1"
"ass_4df29203a1a18";"usr_4de5345b3b6a8";"trm_4a3fd79d0a972";"T16";"tsk_4a57abb949bbf";"concept-task";"100";"motor control is measured by the contrast of accuracy of participant minus average accuracy of controls trials in the motor sequencing task";;"2011-06-10 14:52:03";"NADA";"cnt_4df2917218780";"positive";"1"
"ass_4df29240b83e3";"usr_4de5345b3b6a8";"trm_4a3fd79d0b0bd";"T16";"tsk_4a57abb949bbf";"concept-task";"100";"serial processing is measured by the contrast of accuracy of participant minus average accuracy of controls trials in the motor sequencing task";;"2011-06-10 14:53:04";"NADA";"cnt_4df2917218780";"positive";"1"
"ass_4df29422c1955";"usr_4de5345b3b6a8";"trm_4a3fd79d0b64e";"T16";"trm_4cacee4a1d875";"concept-task";"100";"risk seeking is measured by the contrast of number of choices with greater chance of loss than gain minus number of choices with greater chance of gain than loss trials in the Mixed gambles task";;"2011-06-10 15:01:06";"NADA";"cnt_4df293d2889cb";"positive";"1"
"ass_4df294610d9dd";"usr_4de5345b3b6a8";"trm_4a3fd79d09e07";"T16";"trm_4cacee4a1d875";"concept-task";"100";"conditional reasoning is measured by the contrast of Loss aversion trials in the Mixed gambles task";;"2011-06-10 15:02:09";"NADA";"cnt_4caceed40b5b9";"positive";"1"
"ass_4df299dda0527";"usr_4de5345b3b6a8";"trm_4a3fd79d0989a";"T16";"trm_4c8990b07a037";"concept-task";"100";"articulatory planning is measured by the contrast of Production trials in the Music Comprehension/Production";;"2011-06-10 15:25:33";"NADA";"cnt_4df298fddce13";"positive";"1"
"ass_4df299dda0d3d";"usr_4de5345b3b6a8";"trm_4a3fd79d0989a";"T16";"trm_4c8990b07a037";"concept-task";"100";"articulatory planning is measured by the contrast of accuracy of subject minus average accuracy of controls trials in the Music Comprehension/Production";;"2011-06-10 15:25:33";"NADA";"cnt_4df29978d4002";"positive";"1"
"ass_4df29a26f3bbd";"usr_4de5345b3b6a8";"trm_4a3fd79d09b04";"T16";"trm_4c8990b07a037";"concept-task";"100";"auditory working memory is measured by the contrast of accuracy of subject minus average accuracy of controls trials in the Music Comprehension/Production";;"2011-06-10 15:26:46";"NADA";"cnt_4df29978d4002";"positive";"1"
"ass_4df29ae3b9a1b";"usr_4de5345b3b6a8";"trm_4a3fd79d0a6dc";"T16";"trm_4c8990b07a037";"concept-task";"100";"intonation is measured by the contrast of accuracy of subject minus average accuracy of controls trials in the Music Comprehension/Production";;"2011-06-10 15:29:55";"NADA";"cnt_4df29978d4002";"positive";"1"
"ass_4df29f105d88e";"usr_4de5345b3b6a8";"trm_4a3fd79d0aa8d";"T16";"tsk_4a57abb949bdb";"concept-task";"100";"object manipulation is measured by the contrast of standard deviation from the mean score trials in the nine-hole peg test";;"2011-06-10 15:47:44";"NADA";"cnt_4df29e99a47ae";"positive";"1"
"ass_4df29f399e292";"usr_4de5345b3b6a8";"trm_4a3fd79d0a97e";"T16";"tsk_4a57abb949bdb";"concept-task";"100";"motor execution is measured by the contrast of standard deviation from the mean score trials in the nine-hole peg test";;"2011-06-10 15:48:25";"NADA";"cnt_4df29e99a47ae";"positive";"1"
"ass_4df29f60ae143";"usr_4de5345b3b6a8";"trm_4a3fd79d0afc3";"T16";"trm_4c8990b07a037";"concept-task";"100";"rhythm is measured by the contrast of accuracy of subject minus average accuracy of controls trials in the Music Comprehension/Production";;"2011-06-10 15:49:04";"NADA";"cnt_4df29978d4002";"positive";"1"
"ass_4df2a32436711";"usr_4de5345b3b6a8";"trm_4a3fd79d0b160";"T16";"trm_4c8990f59266f";"concept-task";"100";"somatosensation is measured by the contrast of average rating of sensation minus subject rating of sensation  trials in the Non-Painful Electrical Stimulation";;"2011-06-10 16:05:08";"NADA";"cnt_4df2a27d637b3";"positive";"1"
"ass_4df2a4209079f";"usr_4de5345b3b6a8";"trm_4c89910b7f8bc";"T10";"trm_4c8990f59266f";"task-task";"100";"Non-Painful Thermal Stimulation is related to Non-Painful Electrical Stimulation";;"2011-06-10 16:09:20";"related";;"positive";"1"
"ass_4df2a5c18e849";"usr_4de5345b3b6a8";"trm_4a3fd79d0b39d";"T16";"trm_4c89910b7f8bc";"concept-task";"100";"thermosensation is measured by the contrast of rating of sensation minus baseline trials in the Non-Painful Thermal Stimulation";;"2011-06-10 16:16:17";"NADA";"cnt_4df2a4de25215";"positive";"1"
"ass_4df2a5d59b0d0";"usr_4de5345b3b6a8";"trm_4a3fd79d0b39d";"T16";"trm_4c89910b7f8bc";"concept-task";"100";"thermosensation is measured by the contrast of average rating of sensation minus subject rating of sensation trials in the Non-Painful Thermal Stimulation";;"2011-06-10 16:16:37";"NADA";"cnt_4df2a4cb64388";"positive";"1"
"ass_4df665f9d5206";"usr_4de5345b3b6a8";"trm_4a3fd79d0aaa4";"T16";"tsk_4a57abb949be9";"concept-task";"70";"object perception is measured by the contrast of d&#39; (difference between correct identifications and false alarms) trials in the object-discrimination task";;"2011-06-13 12:33:13";"NADA";"cnt_4df663cf4ea8a";"positive";"1"
"ass_4df665f9d7d9c";"usr_4de5345b3b6a8";"trm_4a3fd79d0aaa4";"T16";"tsk_4a57abb949be9";"concept-task";"70";"object perception is measured by the contrast of accuracy of participant minus average accuracy of controls trials in the object-discrimination task";;"2011-06-13 12:33:13";"NADA";"cnt_4df66400663ec";"positive";"1"
"ass_4df6666c6783f";"usr_4de5345b3b6a8";"trm_4a3fd79d0b4d8";"T16";"tsk_4a57abb949be9";"concept-task";"70";"visual working memory is measured by the contrast of d&#39; (difference between correct identifications and false alarms) trials in the object-discrimination task";;"2011-06-13 12:35:08";"NADA";"cnt_4df663cf4ea8a";"positive";"1"
"ass_4df6666c67dff";"usr_4de5345b3b6a8";"trm_4a3fd79d0b4d8";"T16";"tsk_4a57abb949be9";"concept-task";"70";"visual working memory is measured by the contrast of accuracy of participant minus average accuracy of controls trials in the object-discrimination task";;"2011-06-13 12:35:08";"NADA";"cnt_4df66400663ec";"positive";"1"
"ass_4df667e8b5de0";"usr_4de5345b3b6a8";"trm_4a3fd79d0b4d8";"T16";"trm_4c3e0add96550";"concept-task";"100";"visual working memory is measured by the contrast of sensory modality trials in the oculomotor delayed response";;"2011-06-13 12:41:28";"NADA";"cnt_4c9975fc3078c";"positive";"1"
"ass_4df668444a2ea";"usr_4de5345b3b6a8";"trm_4a3fd79d0a972";"T16";"trm_4c3e0add96550";"concept-task";"70";"motor control is measured by the contrast of sensory modality trials in the oculomotor delayed response";;"2011-06-13 12:43:00";"NADA";"cnt_4c9975fc3078c";"positive";"1"
"ass_4df66aba9c1cb";"usr_4de5345b3b6a8";"trm_4a3fd79d0990e";"T16";"tsk_4a57abb949bf6";"concept-task";"70";"attention capacity is measured by the contrast of accuracy of participant minus average accuracy of controls trials in the oddball task";;"2011-06-13 12:53:30";"NADA";"cnt_4df66a5dec65d";"positive";"1"
"ass_4df66ad3522ad";"usr_4de5345b3b6a8";"trm_4a3fd79d09a10";"T16";"tsk_4a57abb949bf6";"concept-task";"100";"auditory attention is measured by the contrast of ERP strength minus baseline trials in the oddball task";;"2011-06-13 12:53:55";"NADA";"cnt_4df66a33d6b43";"positive";"1"
